subj,session,block,trial,time,item,presentation,type,cue,answer,response,correct,rt
60499,1,vocab1,1,7.919,2,1,study,pombe,beer,beer,TRUE,6277
60499,1,vocab1,2,9.131,2,2,test,pombe,beer,?,FALSE,599
60499,1,vocab1,3,19.783,3,1,study,samaki,fish,fish,TRUE,5637
60499,1,vocab1,4,21.958,3,2,test,samaki,fish,fish,TRUE,134
60499,1,vocab1,5,28.76,17,1,study,likizo,holidays,holidays,TRUE,4694
60499,1,vocab1,6,35.864,20,1,study,baskeli,bike,bike,TRUE,5922
60499,1,vocab1,7,39.235,17,2,test,likizo,holidays,holidays,TRUE,1548
60499,1,vocab1,8,43.465,20,2,test,baskeli,bike, bike,FALSE,2495
60499,1,vocab1,9,49.739,15,1,study,shukuru,thanks,thanks,TRUE,1518
60499,1,vocab1,10,53.932,11,1,study,kuku,chicken,chicken,TRUE,1718
60499,1,vocab1,11,57.697,15,2,test,shukuru,thanks,?,FALSE,3148
60499,1,vocab1,12,61.824,11,2,test,kuku,chicken,?,FALSE,115
60499,1,vocab1,13,68.141,2,3,test,pombe,beer,beer,TRUE,1940
60499,1,vocab1,14,76.85,3,3,test,samaki,fish,monkey,FALSE,6935
60499,1,vocab1,15,84.78,22,1,study,tunda,fruit,fruit,TRUE,1998
60499,1,vocab1,16,96.728,9,1,study,askari,police,police,TRUE,5118
60499,1,vocab1,17,100.538,22,2,test,tunda,fruit,fruit,TRUE,2007
60499,1,vocab1,18,105.149,9,2,test,askari,police,police,TRUE,2700
60499,1,vocab1,19,108.874,17,3,test,likizo,holidays,holidays,TRUE,1711
60499,1,vocab1,20,111.938,20,3,test,baskeli,bike,bike,TRUE,1755
60499,1,vocab1,21,115.848,15,3,test,shukuru,thanks,thanks,TRUE,2581
60499,1,vocab1,22,119.343,3,4,test,samaki,fish,fish,TRUE,2114
60499,1,vocab1,23,122.636,11,3,test,kuku,chicken,chicken,TRUE,1153
60499,1,vocab1,24,127.5,6,1,study,tumbili,monkey,monkey,TRUE,2530
60499,1,vocab1,25,130.952,16,1,study,kazi,work,work,TRUE,1684
60499,1,vocab1,26,135.321,6,2,test,tumbili,monkey,monkey,TRUE,2365
60499,1,vocab1,27,137.974,16,2,test,kazi,work,work,TRUE,1317
60499,1,vocab1,28,143.354,25,1,study,lugha,language,language,TRUE,1285
60499,1,vocab1,29,148.886,12,1,study,fasihi,book,book,TRUE,4240
60499,1,vocab1,30,155.356,25,2,test,lugha,language,language,TRUE,2178
60499,1,vocab1,31,159.025,12,2,test,fasihi,book,book,TRUE,2251
60499,1,vocab1,32,164.608,22,3,test,tunda,fruit,fruit,TRUE,4131
60499,1,vocab1,33,168.071,9,3,test,askari,police,police,TRUE,1883
60499,1,vocab1,34,176.44,23,1,study,maumiva,pain,pain,TRUE,2552
60499,1,vocab1,35,180.102,14,1,study,sauti,voice,voice,TRUE,2198
60499,1,vocab1,36,183.435,23,2,test,maumiva,pain,pain,TRUE,1192
60499,1,vocab1,37,185.708,14,2,test,sauti,voice,voice,TRUE,1129
60499,1,vocab1,38,190.396,6,3,test,tumbili,monkey,monkey,TRUE,1136
60499,1,vocab1,39,193.253,16,3,test,kazi,work,work,TRUE,1712
60499,1,vocab1,40,196.073,15,4,test,shukuru,thanks,thanks,TRUE,1573
60499,1,vocab1,41,203.55,1,1,study,adui,enemy,enemy,TRUE,3426
60499,1,vocab1,42,206.269,25,3,test,lugha,language,language,TRUE,1146
60499,1,vocab1,43,210.511,1,2,test,adui,enemy,enemy,TRUE,2266
60499,1,vocab1,44,212.768,22,4,test,tunda,fruit,fruit,TRUE,921
60499,1,vocab1,45,215.805,12,3,test,fasihi,book,book,TRUE,1974
60499,1,vocab1,46,220.424,5,1,study,afisi,office,office,TRUE,1848
60499,1,vocab1,47,224.566,7,1,study,jicho,eye,eye,TRUE,1833
60499,1,vocab1,48,230.435,5,2,test,afisi,office,office,TRUE,2884
60499,1,vocab1,49,232.742,7,2,test,jicho,eye,eye,TRUE,1339
60499,1,vocab1,50,235.75,14,3,test,sauti,voice,voice,TRUE,1927
60499,1,vocab1,51,238.5,23,3,test,maumiva,pain,pain,TRUE,1625
60499,1,vocab1,52,243.308,4,1,study,kaputula,pants,pants,TRUE,2946
60499,1,vocab1,53,247.767,8,1,study,flava,music,music,TRUE,1009
60499,1,vocab1,54,251.171,4,2,test,kaputula,pants,pants,TRUE,1454
60499,1,vocab1,55,254.811,8,2,test,flava,music,music,TRUE,2161
60499,1,vocab1,56,258.802,3,5,test,samaki,fish,fish,TRUE,2825
60499,1,vocab1,57,261.36,1,3,test,adui,enemy,enemy,TRUE,1223
60499,1,vocab1,58,265.044,13,1,study,wimbo,song,song,TRUE,1407
60499,1,vocab1,59,270.582,19,1,study,duara,wheel,wheel,TRUE,2908
60499,1,vocab1,60,273.197,13,2,test,wimbo,song,song,TRUE,1546
60499,1,vocab1,61,277.99,19,2,test,duara,wheel,wheel,TRUE,1651
60499,1,vocab1,62,281.03,5,3,test,afisi,office,office,TRUE,1477
60499,1,vocab1,63,284.488,7,3,test,jicho,eye,eye,TRUE,2087
60499,1,vocab1,64,288.356,21,1,study,rangi,color,color,TRUE,2031
60499,1,vocab1,65,293.712,18,1,study,rafiki,friend,friend,TRUE,2006
60499,1,vocab1,66,296.781,21,2,test,rangi,color,color,TRUE,1834
60499,1,vocab1,67,299.393,18,2,test,rafiki,friend,friend,TRUE,1134
60499,1,vocab1,68,315.141,4,3,test,kaputula,pants,pants,TRUE,7740
60499,1,vocab1,69,318.373,8,3,test,flava,music,music,TRUE,1608
60499,1,vocab1,70,320.507,13,3,test,wimbo,song,song,TRUE,958
60499,1,vocab1,71,323.227,19,3,test,duara,wheel,wheel,TRUE,1285
60499,1,vocab1,72,327.545,10,1,study,wingu,cloud,cloud,TRUE,1922
60499,1,vocab1,73,331.412,24,1,study,duka,shop,shop,TRUE,2524
60499,1,vocab1,74,335.345,10,2,test,wingu,cloud,cloud,TRUE,1206
60499,1,vocab1,75,337.896,24,2,test,duka,shop,shop,TRUE,1228
60499,1,vocab1,76,343.338,4,4,test,kaputula,pants,pants,TRUE,3830
60499,1,vocab1,77,346.178,21,3,test,rangi,color,color,TRUE,1473
60499,1,vocab1,78,349.047,18,3,test,rafiki,friend,friend,TRUE,1491
60499,1,vocab1,79,353.183,3,6,test,samaki,fish,fish,TRUE,2432
60499,1,vocab1,80,356.001,2,4,test,pombe,beer,beer,TRUE,1196
60499,1,vocab1,81,359.07,15,5,test,shukuru,thanks,thanks,TRUE,1555
60499,1,vocab1,82,361.443,4,5,test,kaputula,pants,pants,TRUE,1081
60499,1,vocab1,83,366.363,20,4,test,baskeli,bike,bike,TRUE,3765
60499,1,vocab1,84,369.121,10,3,test,wingu,cloud,cloud,TRUE,1281
60499,1,vocab1,85,372.046,17,4,test,likizo,holidays,holidays,TRUE,1383
60499,1,vocab1,86,376.056,24,3,test,duka,shop,shop,TRUE,1757
60499,1,vocab1,87,378.912,11,4,test,kuku,chicken,chicken,TRUE,1171
60499,1,vocab1,88,381.3,22,5,test,tunda,fruit,fruit,TRUE,1034
60499,1,vocab1,89,392.254,6,4,test,tumbili,monkey,monkey,TRUE,7520
60499,1,vocab1,90,395.587,16,4,test,kazi,work,work,TRUE,1984
60499,1,vocab1,91,400.55,9,4,test,askari,police,police,TRUE,1653
60499,1,vocab1,92,403.394,4,6,test,kaputula,pants,pants,TRUE,1261
60499,1,vocab1,93,405.971,25,4,test,lugha,language,language,TRUE,987
60499,1,vocab1,94,410.421,12,4,test,fasihi,book,book,TRUE,3035
60499,1,vocab1,95,413.869,14,4,test,sauti,voice,voice,TRUE,1170
60499,1,vocab1,96,416.27,20,5,test,baskeli,bike,bike,TRUE,1163
60499,1,vocab1,97,418.226,7,4,test,jicho,eye,eye,TRUE,931
60499,1,vocab1,98,420.758,23,4,test,maumiva,pain,pain,TRUE,1396
60499,1,vocab1,99,424.414,3,7,test,samaki,fish,fish,TRUE,1133
60499,1,vocab1,100,427.235,1,4,test,adui,enemy,enemy,TRUE,1465
60499,1,vocab1,101,430.969,6,5,test,tumbili,monkey,monkey,TRUE,2196
60499,1,vocab1,102,434.507,5,4,test,afisi,office,office,TRUE,1344
60499,1,vocab1,103,437.085,4,7,test,kaputula,pants,pants,TRUE,883
60499,1,vocab1,104,440.436,8,4,test,flava,music,music,TRUE,2163
60499,1,vocab1,105,443.5,19,4,test,duara,wheel,wheel,TRUE,1345
60499,1,vocab1,106,447.038,13,4,test,wimbo,song,song,TRUE,2423
60499,1,vocab1,107,449.277,21,4,test,rangi,color,color,TRUE,1099
60499,1,vocab1,108,452.944,18,4,test,rafiki,friend,friend,TRUE,1759
60499,1,vocab1,109,457.181,6,6,test,tumbili,monkey,monkey,TRUE,2734
60499,1,vocab1,110,461.401,12,5,test,fasihi,book,book,TRUE,2887
60499,1,vocab1,111,464.001,10,4,test,wingu,cloud,cloud,TRUE,1300
60499,1,vocab1,112,466.504,24,4,test,duka,shop,shop,TRUE,1385
60499,1,vocab1,113,469.497,4,8,test,kaputula,pants,pants,TRUE,887
60499,1,vocab1,114,472.431,3,8,test,samaki,fish,fish,TRUE,1599
60499,1,vocab1,115,474.898,20,6,test,baskeli,bike,bike,TRUE,1321
60499,1,vocab1,116,477.927,6,7,test,tumbili,monkey,monkey,TRUE,1549
60499,1,vocab1,117,480.201,12,6,test,fasihi,book,book,TRUE,1066
60499,1,vocab1,118,482.962,8,5,test,flava,music,music,TRUE,1526
60499,1,vocab1,119,485.659,15,6,test,shukuru,thanks,thanks,TRUE,1395
60499,1,vocab1,120,488.361,13,5,test,wimbo,song,song,TRUE,1553
60499,1,vocab1,121,493.579,22,6,test,tunda,fruit,fruit,TRUE,1386
60499,1,vocab1,122,497.098,9,5,test,askari,police,police,TRUE,1127
60499,1,vocab1,123,499.213,2,5,test,pombe,beer,beer,TRUE,956
60499,1,vocab1,124,501.595,12,7,test,fasihi,book,book,TRUE,1334
60499,1,vocab1,125,509.376,6,8,test,tumbili,monkey,monkey,TRUE,2284
60499,1,vocab1,126,513.186,11,5,test,kuku,chicken,chicken,TRUE,1038
60499,1,vocab1,127,515.556,4,9,test,kaputula,pants,pants,TRUE,1041
60499,1,vocab1,128,518.188,3,9,test,samaki,fish,fish,TRUE,1057
60499,1,vocab1,129,520.766,17,5,test,likizo,holidays,holidays,TRUE,1004
60499,1,vocab1,130,526.234,6,9,test,tumbili,monkey,monkey,TRUE,1749
60499,1,vocab1,131,529.002,16,5,test,kazi,work,work,TRUE,1648
60499,1,vocab1,132,531.852,6,10,test,tumbili,monkey,monkey,TRUE,1357
60499,1,vocab1,133,533.899,7,5,test,jicho,eye,eye,TRUE,833
60499,1,vocab1,134,539.043,14,5,test,sauti,voice,voice,TRUE,1419
60499,1,vocab1,135,541.673,12,8,test,fasihi,book,book,TRUE,1484
60499,1,vocab1,136,545.651,6,11,test,tumbili,monkey,monkey,TRUE,1221
60499,1,vocab1,137,548.543,25,5,test,lugha,language,language,TRUE,837
60499,1,vocab1,138,550.884,23,5,test,maumiva,pain,pain,TRUE,1021
60499,1,vocab1,139,554.361,1,5,test,adui,enemy,enemy,TRUE,1039
60499,1,vocab1,140,557.908,5,5,test,afisi,office,office,TRUE,1324
60499,1,vocab1,141,561.088,8,6,test,flava,music,music,TRUE,1743
60499,1,vocab1,142,567.532,6,12,test,tumbili,monkey,monkey,TRUE,3390
60499,1,vocab1,143,570.231,13,6,test,wimbo,song,song,TRUE,1586
60499,1,vocab1,144,572.489,19,5,test,duara,wheel,wheel,TRUE,1058
60499,1,vocab1,145,575.132,3,10,test,samaki,fish,fish,TRUE,1328
60499,1,vocab1,146,578.266,6,13,test,tumbili,monkey,monkey,TRUE,967
60499,1,vocab1,147,581.236,21,5,test,rangi,color,color,TRUE,1237
60499,1,vocab1,148,583.728,12,9,test,fasihi,book,book,TRUE,1082
60499,1,vocab1,149,586.76,18,5,test,rafiki,friend,friend,TRUE,1330
60499,1,vocab1,150,589.252,20,7,test,baskeli,bike,bike,TRUE,1251
60499,1,vocab1,151,592.437,10,5,test,wingu,cloud,cloud,TRUE,1121
60499,1,vocab1,152,595.993,24,5,test,duka,shop,shop,TRUE,1384
60499,1,vocab1,153,599.011,8,7,test,flava,music,music,TRUE,1829
60499,1,vocab1,154,604.389,6,14,test,tumbili,monkey,monkey,TRUE,1788
60499,1,vocab1,155,607.258,16,6,test,kazi,work,work,TRUE,1667
60499,1,vocab1,156,610.105,13,7,test,wimbo,song,song,TRUE,1355
60499,1,vocab1,157,612.956,4,10,test,kaputula,pants,pants,TRUE,958
60499,1,vocab1,158,617.328,6,15,test,tumbili,monkey,monkey,TRUE,1911
60499,1,vocab1,159,621.46,9,6,test,askari,police,police,TRUE,1918
60499,1,vocab1,160,626.956,6,16,test,tumbili,monkey,monkey,TRUE,1313
60499,1,vocab1,161,632.568,8,8,test,flava,music,music,TRUE,3644
60499,1,vocab1,162,636.791,6,17,test,tumbili,monkey,monkey,TRUE,2585
60499,1,vocab1,163,640.337,15,7,test,shukuru,thanks,thanks,TRUE,1823
60499,1,vocab1,164,643.267,6,18,test,tumbili,monkey,monkey,TRUE,1155
60499,1,vocab1,165,645.803,12,10,test,fasihi,book,book,TRUE,1098
60499,1,vocab1,166,648.625,6,19,test,tumbili,monkey,monkey,TRUE,1420
60499,1,vocab1,167,651.657,3,11,test,samaki,fish,fish,TRUE,1745
60499,1,vocab1,168,654.733,6,20,test,tumbili,monkey,monkey,TRUE,900
60499,1,vocab1,169,658.886,9,7,test,askari,police,police,TRUE,2036
60499,1,vocab1,170,662.5,8,9,test,flava,music,music,TRUE,1252
60499,1,vocab1,171,665.322,6,21,test,tumbili,monkey,monkey,TRUE,1047
60499,1,vocab1,172,667.988,16,7,test,kazi,work,work,TRUE,1451
60499,1,vocab1,173,670.488,13,8,test,wimbo,song,song,TRUE,1399
60499,1,vocab1,174,677.97,14,6,test,sauti,voice,voice,TRUE,4262
60499,1,vocab1,175,680.629,22,7,test,tunda,fruit,fruit,TRUE,1154
60499,1,vocab1,176,685.3,6,22,test,tumbili,monkey,monkey,TRUE,1009
60499,1,vocab1,177,688.204,3,12,test,samaki,fish,fish,TRUE,1153
60499,1,vocab1,178,691.926,24,6,test,duka,shop,shop,TRUE,2675
60499,1,vocab1,179,697.104,8,10,test,flava,music,music,TRUE,3078
60499,1,vocab1,180,699.659,13,9,test,wimbo,song,song,TRUE,1488
60499,1,vocab1,181,702.651,8,11,test,flava,music,music,TRUE,1709
60499,1,vocab1,182,705.093,6,23,test,tumbili,monkey,monkey,TRUE,1015
60499,1,vocab1,183,707.418,8,12,test,flava,music,music,TRUE,1056
60499,1,vocab1,184,709.93,16,8,test,kazi,work,work,TRUE,1065
60499,1,vocab1,185,713.674,8,13,test,flava,music,music,TRUE,1219
60499,1,vocab1,186,716.14,9,8,test,askari,police,police,TRUE,1221
60499,1,vocab1,187,718.182,8,14,test,flava,music,music,TRUE,725
60499,1,vocab1,188,720.603,15,8,test,shukuru,thanks,thanks,TRUE,1162
60499,1,vocab1,189,722.697,8,15,test,flava,music,music,TRUE,916
60499,1,vocab1,190,725.052,18,6,test,rafiki,friend,friend,TRUE,934
60499,1,vocab1,191,727.117,7,6,test,jicho,eye,eye,TRUE,920
60499,1,vocab1,192,729.666,3,13,test,samaki,fish,fish,TRUE,1014
60499,1,vocab1,193,731.796,20,8,test,baskeli,bike,bike,TRUE,1068
60499,1,vocab1,194,736.175,14,7,test,sauti,voice,voice,TRUE,1064
60499,1,vocab1,195,738.164,8,16,test,flava,music,music,TRUE,865
60499,1,vocab1,196,740.135,13,10,test,wimbo,song,song,TRUE,999
60499,1,vocab1,197,744.039,6,24,test,tumbili,monkey,monkey,TRUE,2546
60499,1,vocab1,198,749.075,5,6,test,afisi,office,office,TRUE,1384
60499,1,vocab1,199,751.029,2,6,test,pombe,beer,beer,TRUE,923
60499,1,vocab1,200,754.732,16,9,test,kazi,work,work,TRUE,2544
60499,1,vocab1,201,757.236,11,6,test,kuku,chicken,chicken,TRUE,1015
60499,1,vocab1,202,760.412,6,25,test,tumbili,monkey,monkey,TRUE,1724
60499,1,vocab1,203,763.354,24,7,test,duka,shop,shop,TRUE,1898
60499,1,vocab1,204,768.903,6,26,test,tumbili,monkey,monkey,TRUE,2302
60499,1,vocab1,205,772.923,24,8,test,duka,shop,shop,TRUE,2038
60499,1,vocab1,206,777.573,6,27,test,tumbili,monkey,monkey,TRUE,3017
60499,1,vocab1,207,779.737,24,9,test,duka,shop,shop,TRUE,1090
60499,1,vocab1,208,781.77,6,28,test,tumbili,monkey,monkey,TRUE,535
60499,1,vocab1,209,784.299,8,17,test,flava,music,music,TRUE,1391
60499,1,vocab1,210,786.52,6,29,test,tumbili,monkey,monkey,TRUE,622
60499,1,vocab1,211,788.52,24,10,test,duka,shop,shop,TRUE,940
60499,1,vocab1,212,790.807,6,30,test,tumbili,monkey,monkey,TRUE,781
60499,1,vocab1,213,793.682,8,18,test,flava,music,music,TRUE,1500
60499,1,vocab1,214,796.258,6,31,test,tumbili,monkey,monkey,TRUE,560
60499,1,vocab1,215,798.236,13,11,test,wimbo,song,song,TRUE,902
60499,1,vocab1,216,801.02,4,11,test,kaputula,pants,pants,TRUE,1244
60499,1,vocab1,217,805.026,8,19,test,flava,music,music,TRUE,957
60499,1,vocab1,218,807.509,16,10,test,kazi,work,work,TRUE,1016
60499,1,vocab1,219,809.591,24,11,test,duka,shop,shop,TRUE,991
60499,1,vocab1,220,811.918,12,11,test,fasihi,book,book,TRUE,1286
60499,1,vocab1,221,814.316,6,32,test,tumbili,monkey,monkey,TRUE,778
60499,1,vocab1,222,817.609,21,6,test,rangi,color,color,TRUE,1161
60499,1,vocab1,223,820.149,8,20,test,flava,music,music,TRUE,1174
60499,1,vocab1,224,822.443,15,9,test,shukuru,thanks,thanks,TRUE,886
60499,1,vocab1,225,825.443,17,6,test,likizo,holidays,holidays,TRUE,1115
60499,1,vocab1,226,829.342,10,6,test,wingu,cloud,cloud,TRUE,1431
60499,1,vocab1,227,832.756,19,6,test,duara,wheel,wheel,TRUE,1841
60499,1,vocab1,228,835.352,25,6,test,lugha,language,language,TRUE,888
60499,1,vocab1,229,838.492,8,21,test,flava,music,music,TRUE,1868
60499,1,vocab1,230,840.568,24,12,test,duka,shop,shop,TRUE,950
60499,1,vocab1,231,844.055,9,9,test,askari,police,office,FALSE,1331
60499,1,vocab1,232,853.834,1,6,test,adui,enemy,enemy,TRUE,4822
60499,1,vocab1,233,858.014,9,10,test,askari,police,police,TRUE,1484
60499,1,vocab1,234,860.432,8,22,test,flava,music,music,TRUE,1153
60499,1,vocab1,235,864.196,9,11,test,askari,police,police,TRUE,1984
60499,1,vocab1,236,866.434,23,6,test,maumiva,pain,pain,TRUE,1036
60499,1,vocab1,237,869.209,9,12,test,askari,police,police,TRUE,953
60499,1,vocab1,238,871.938,14,8,test,sauti,voice,voice,TRUE,1726
60499,1,vocab1,239,875.201,3,14,test,samaki,fish,fish,TRUE,1265
60499,1,vocab1,240,878.374,5,7,test,afisi,office,oiffice,FALSE,1617
60499,1,vocab1,241,884.819,8,23,test,flava,music,color,FALSE,1801
60499,1,vocab1,242,889.017,6,33,test,tumbili,monkey,?,FALSE,187
60499,1,vocab1,243,898.845,9,13,test,askari,police,police,TRUE,2708
60499,1,vocab1,244,901.37,16,11,test,kazi,work,work,TRUE,1394
60499,1,vocab1,245,904.778,9,14,test,askari,police,police,TRUE,1746
60499,1,vocab1,246,908.891,8,24,test,flava,music,music,TRUE,2530
60499,1,vocab1,247,911.225,9,15,test,askari,police,police,TRUE,989
60499,1,vocab1,248,915.168,8,25,test,flava,music,music,TRUE,1219
60499,1,vocab1,249,917.842,9,16,test,askari,police,police,TRUE,1124
60499,1,vocab1,250,921.658,8,26,test,flava,music,music,TRUE,2093
60499,1,vocab1,251,924.412,9,17,test,askari,police,police,TRUE,1005
60499,1,vocab1,252,927.523,8,27,test,flava,music,music,TRUE,1525
60499,1,vocab1,253,932.241,6,34,test,tumbili,monkey,monkey,TRUE,1843
60499,1,vocab1,254,935.388,8,28,test,flava,music,music,TRUE,1118
60499,1,vocab1,255,938.018,6,35,test,tumbili,monkey,monkey,TRUE,1154
60499,1,vocab1,256,942.472,8,29,test,flava,music,music,TRUE,1610
60499,1,vocab1,257,945.851,9,18,test,askari,police,police,TRUE,1409
60499,1,vocab1,258,950.855,8,30,test,flava,music,music,TRUE,2590
60499,1,vocab1,259,953.459,6,36,test,tumbili,monkey,monkey,TRUE,1088
60499,1,vocab1,260,955.904,8,31,test,flava,music,music,TRUE,1172
60499,1,vocab1,261,958.668,9,19,test,askari,police,police,TRUE,1262
60499,1,vocab1,262,962.257,8,32,test,flava,music,music,TRUE,2397
60499,1,vocab1,263,968.299,6,37,test,tumbili,monkey,monkey,TRUE,4236
60499,1,vocab1,264,973.418,8,33,test,flava,music,music,TRUE,2904
60499,1,vocab1,265,976.877,6,38,test,tumbili,monkey,monkey,TRUE,1120
60499,1,vocab1,266,980.197,8,34,test,flava,music,music,TRUE,1893
60499,1,vocab1,267,983.015,9,20,test,askari,police,police,TRUE,1067
60499,1,vocab1,268,986,8,35,test,flava,music,music,TRUE,1416
60499,1,vocab1,269,988.46,13,12,test,wimbo,song,song,TRUE,1317
60499,1,vocab1,270,991.369,8,36,test,flava,music,music,TRUE,1116
60499,1,vocab1,271,994.852,12,12,test,fasihi,book,book,TRUE,1309
60499,1,vocab1,272,996.95,8,37,test,flava,music,music,TRUE,834
60499,1,vocab1,273,999.37,9,21,test,askari,police,police,TRUE,961
60499,1,vocab1,274,1001.978,8,38,test,flava,music,music,TRUE,842
60499,1,vocab1,275,1004.473,20,9,test,baskeli,bike,bike,TRUE,1099
60499,1,vocab1,276,1007.077,8,39,test,flava,music,music,TRUE,964
60499,1,vocab1,277,1011.061,6,39,test,tumbili,monkey,monkey,TRUE,1185
60499,1,vocab1,278,1013.787,16,12,test,kazi,work,work,TRUE,1397
60499,1,vocab1,279,1017.372,3,15,test,samaki,fish,fish,TRUE,1936
60499,1,vocab1,280,1019.643,8,40,test,flava,music,music,TRUE,801
60499,1,vocab1,281,1022.331,18,7,test,rafiki,friend,friend,TRUE,1388
60499,1,vocab1,282,1024.665,15,10,test,shukuru,thanks,thanks,TRUE,919
60499,1,vocab1,283,1028.31,1,7,test,adui,enemy,enemy,TRUE,1007
60499,1,vocab1,284,1031.164,24,13,test,duka,shop,shop,TRUE,1631
60499,1,vocab1,285,1034.041,9,22,test,askari,police,police,TRUE,1424
60499,1,vocab1,286,1037.069,14,9,test,sauti,voice,voice,TRUE,1869
60499,1,vocab1,287,1039.551,9,23,test,askari,police,police,TRUE,1144
60499,1,vocab1,288,1041.925,14,10,test,sauti,voice,voice,TRUE,1157
60499,1,vocab1,289,1044.75,6,40,test,tumbili,monkey,monkey,TRUE,1227
60499,1,vocab1,290,1048.119,8,41,test,flava,music,music,TRUE,921
60499,1,vocab1,291,1051.02,9,24,test,askari,police,police,TRUE,1235
60499,1,vocab1,292,1053.238,14,11,test,sauti,voice,voice,TRUE,1069
60499,1,vocab1,293,1056.74,16,13,test,kazi,work,work,TRUE,1614
60499,1,vocab1,294,1061.48,5,8,test,afisi,office,office,TRUE,1806
60499,1,vocab1,295,1064.251,9,25,test,askari,police,police,TRUE,1174
60499,1,vocab1,296,1067.253,21,7,test,rangi,color,color,TRUE,1573
60499,1,vocab1,297,1070.057,6,41,test,tumbili,monkey,monkey,TRUE,1277
60499,1,vocab1,298,1072.549,10,7,test,wingu,cloud,cloud,TRUE,1132
60499,1,vocab1,299,1074.487,13,13,test,wimbo,song,song,TRUE,879
60499,1,vocab1,300,1077.313,9,26,test,askari,police,police,TRUE,1107
60499,1,vocab1,301,1079.5,12,13,test,fasihi,book,book,TRUE,1031
60499,1,vocab1,302,1082.858,3,16,test,samaki,fish,fish,TRUE,974
60499,1,vocab1,303,1087.08,6,42,test,tumbili,monkey,monkey,TRUE,2339
60499,1,vocab1,304,1089.308,14,12,test,sauti,voice,voice,TRUE,1002
60499,1,vocab1,305,1092.355,9,27,test,askari,police,police,TRUE,1514
60499,1,vocab1,306,1095.412,19,7,test,duara,wheel,wheel,TRUE,983
60499,1,vocab1,307,1097.676,16,14,test,kazi,work,work,TRUE,1008
60499,1,vocab1,308,1100.57,6,43,test,tumbili,monkey,monkey,TRUE,1278
60499,1,vocab1,309,1103.561,24,14,test,duka,shop,shop,TRUE,1454
60499,1,vocab1,310,1106.974,9,28,test,askari,police,police,TRUE,1295
60499,1,vocab1,311,1109.441,8,42,test,flava,music,music,TRUE,1198
60499,1,vocab1,312,1112.061,9,29,test,askari,police,police,TRUE,1124
60499,1,vocab1,313,1115.11,22,8,test,tunda,fruit,fruit,TRUE,979
60499,1,vocab1,314,1118.988,9,30,test,askari,police,police,TRUE,975
60499,1,vocab1,315,1121.568,6,44,test,tumbili,monkey,monkey,TRUE,1064
60499,1,vocab1,316,1124.515,24,15,test,duka,shop,shop,TRUE,1826
60499,1,vocab1,317,1127.327,18,8,test,rafiki,friend,friend,TRUE,1107
60499,1,vocab1,318,1130.76,9,31,test,askari,police,police,TRUE,1318
60499,1,vocab1,319,1133.018,14,13,test,sauti,voice,voice,TRUE,1001
60499,1,vocab1,320,1135.636,9,32,test,askari,police,police,TRUE,1062
60499,1,vocab1,321,1138.338,6,45,test,tumbili,monkey,monkey,TRUE,1183
60499,1,vocab1,322,1142.54,8,43,test,flava,music,music,TRUE,1263
60499,1,vocab1,323,1145.518,9,33,test,askari,police,police,TRUE,1166
60499,1,vocab1,324,1148.389,24,16,test,duka,shop,shop,TRUE,1471
60499,1,vocab1,325,1151.598,5,9,test,afisi,office,office,TRUE,1648
60499,1,vocab1,326,1155.357,9,34,test,askari,police,police,TRUE,1124
60499,1,vocab1,327,1158.833,5,10,test,afisi,office,office,TRUE,1863
60499,1,vocab1,328,1161.868,9,35,test,askari,police,police,TRUE,1357
60499,1,vocab1,329,1164.82,6,46,test,tumbili,monkey,monkey,TRUE,1147
60499,1,vocab1,330,1167.225,9,36,test,askari,police,police,TRUE,977
60499,1,vocab1,331,1170.018,8,44,test,flava,music,music,TRUE,1201
60499,1,vocab1,332,1174.132,3,17,test,samaki,fish,fish,TRUE,1496
60499,1,vocab1,333,1177.604,5,11,test,afisi,office,office,TRUE,1445
60499,1,vocab1,334,1180.527,9,37,test,askari,police,police,TRUE,1217
60499,1,vocab1,335,1185.158,24,17,test,duka,shop,shop,TRUE,1678
60499,1,vocab1,336,1187.994,6,47,test,tumbili,monkey,monkey,TRUE,1144
60499,1,vocab1,337,1190.844,9,38,test,askari,police,police,TRUE,1138
60499,1,vocab1,338,1194.31,24,18,test,duka,shop,shop,TRUE,1688
60499,1,vocab1,339,1197.5,16,15,test,kazi,work,work,TRUE,1202
60499,1,vocab1,340,1199.843,24,19,test,duka,shop,shop,TRUE,1090
60499,1,vocab1,341,1205.676,9,39,test,askari,police,police,TRUE,1900
60499,2,vocab2,1,5.687,27,1,study,anga,sky,anga,FALSE,4095
60499,2,vocab2,2,12.406,27,2,test,anga,sky,sky,TRUE,1211
60499,2,vocab2,3,23.809,28,1,study,ujuzi,knowledge,knowledge,TRUE,5450
60499,2,vocab2,4,28.665,28,2,test,ujuzi,knowledge,knowledge,TRUE,1285
60499,2,vocab2,5,33.792,42,1,study,maliki,king,king,TRUE,3360
60499,2,vocab2,6,39.833,45,1,study,lango,door,door,TRUE,4393
60499,2,vocab2,7,41.593,42,2,test,maliki,king,king,TRUE,668
60499,2,vocab2,8,43.32,45,2,test,lango,door,door,TRUE,580
60499,2,vocab2,9,47.791,40,1,study,dunia,world,world,TRUE,2065
60499,2,vocab2,10,53.254,36,1,study,chunga,pot,pot,TRUE,4171
60499,2,vocab2,11,55.571,40,2,test,dunia,world,world,TRUE,1063
60499,2,vocab2,12,57.791,36,2,test,chunga,pot,pot,TRUE,1234
60499,2,vocab2,13,60.752,27,3,test,anga,sky,sky,TRUE,1586
60499,2,vocab2,14,70.62,47,1,study,maziwa,milk,milk,TRUE,4905
60499,2,vocab2,15,75.194,34,1,study,bibi,grandmother,grandmother,TRUE,2515
60499,2,vocab2,16,77.344,47,2,test,maziwa,milk,milk,TRUE,1005
60499,2,vocab2,17,80.462,34,2,test,bibi,grandmother,grandmother,TRUE,1301
60499,2,vocab2,18,84.69,28,3,test,ujuzi,knowledge,knowledge,TRUE,1563
60499,2,vocab2,19,90.722,31,1,study,barua,letter,letter,TRUE,3409
60499,2,vocab2,20,94.117,45,3,test,lango,door,door,TRUE,2124
60499,2,vocab2,21,97.123,31,2,test,barua,letter,letter,TRUE,1450
60499,2,vocab2,22,104.423,42,3,test,maliki,king,milk,FALSE,1912
60499,2,vocab2,23,111.138,40,3,test,dunia,world,world,TRUE,2133
60499,2,vocab2,24,114.16,36,3,test,chunga,pot,pot,TRUE,2058
60499,2,vocab2,25,120.423,41,1,study,keja,house,house ,FALSE,2065
60499,2,vocab2,26,127.301,34,3,test,bibi,grandmother,grandmother,TRUE,1060
60499,2,vocab2,27,129.701,41,2,test,keja,house,house,TRUE,1205
60499,2,vocab2,28,134.714,47,3,test,maziwa,milk,milk,TRUE,2536
60499,2,vocab2,29,140.477,50,1,study,chama,society,society,TRUE,2040
60499,2,vocab2,30,143.276,42,4,test,maliki,king,king,TRUE,1480
60499,2,vocab2,31,146.978,50,2,test,chama,society,society,TRUE,2035
60499,2,vocab2,32,149.868,31,3,test,barua,letter,letter,TRUE,1678
60499,2,vocab2,33,154.774,37,1,study,skati,skirt,skirt,TRUE,2554
60499,2,vocab2,34,160.022,48,1,study,bustani,garden,garden,TRUE,3847
60499,2,vocab2,35,163.208,37,2,test,skati,skirt,skirt,TRUE,1670
60499,2,vocab2,36,166.678,48,2,test,bustani,garden,garden,TRUE,1909
60499,2,vocab2,37,171.375,39,1,study,dubu,bear,bear,TRUE,2217
60499,2,vocab2,38,180.989,26,1,study,chanjo,scissors,scissors,TRUE,3250
60499,2,vocab2,39,183.414,39,2,test,dubu,bear,bear,TRUE,1420
60499,2,vocab2,40,186.992,26,2,test,chanjo,scissors,scissors,TRUE,1200
60499,2,vocab2,41,190.061,41,3,test,keja,house,house,TRUE,1773
60499,2,vocab2,42,193.577,50,3,test,chama,society,society,TRUE,1623
60499,2,vocab2,43,200.167,30,1,study,kisu,knife,knife,TRUE,2059
60499,2,vocab2,44,206.611,32,1,study,karamu,party,party,TRUE,4928
60499,2,vocab2,45,209.19,30,2,test,kisu,knife,knife,TRUE,1242
60499,2,vocab2,46,213.941,32,2,test,karamu,party,party,TRUE,1508
60499,2,vocab2,47,216.807,37,3,test,skati,skirt,skirt,TRUE,1382
60499,2,vocab2,48,219.695,48,3,test,bustani,garden,garden,TRUE,1314
60499,2,vocab2,49,228.845,29,1,study,mbwa,dog,dog,TRUE,3119
60499,2,vocab2,50,231.718,47,4,test,maziwa,milk,milk,TRUE,1624
60499,2,vocab2,51,234.127,29,2,test,mbwa,dog,dog,TRUE,1222
60499,2,vocab2,52,237.759,39,3,test,dubu,bear,bear,TRUE,2013
60499,2,vocab2,53,247.914,26,3,test,chanjo,scissors,scissors,TRUE,7953
60499,2,vocab2,54,254.064,33,1,study,adhama,honor,honor,TRUE,4658
60499,2,vocab2,55,258.994,38,1,study,chapati,bread,bread,TRUE,2801
60499,2,vocab2,56,261.804,33,2,test,adhama,honor,honor,TRUE,1609
60499,2,vocab2,57,265.786,38,2,test,chapati,bread,bread,TRUE,1149
60499,2,vocab2,58,269.554,32,3,test,karamu,party,party,TRUE,2382
60499,2,vocab2,59,271.991,30,3,test,kisu,knife,knife,TRUE,1021
60499,2,vocab2,60,276.095,44,1,study,roho,soul,soul,TRUE,2155
60499,2,vocab2,61,281.374,46,1,study,kichwa,head,head,TRUE,3022
60499,2,vocab2,62,284.772,44,2,test,roho,soul,soul,TRUE,1874
60499,2,vocab2,63,288.138,46,2,test,kichwa,head,head,TRUE,2040
60499,2,vocab2,64,293.643,26,4,test,chanjo,scissors,scissors,TRUE,3223
60499,2,vocab2,65,296.01,29,3,test,mbwa,dog,dog,TRUE,1125
60499,2,vocab2,66,299.723,43,1,study,jiwe,stone,stone,TRUE,2066
60499,2,vocab2,67,305.093,35,1,study,tabibu,doctor,doctor,TRUE,3763
60499,2,vocab2,68,307.768,43,2,test,jiwe,stone,stone,TRUE,1170
60499,2,vocab2,69,310.903,35,2,test,tabibu,doctor,doctor,TRUE,1114
60499,2,vocab2,70,315.116,33,3,test,adhama,honor,honor,TRUE,2953
60499,2,vocab2,71,317.515,38,3,test,chapati,bread,bread,TRUE,1193
60499,2,vocab2,72,321.56,26,5,test,chanjo,scissors,scissors,TRUE,1671
60499,2,vocab2,73,326.952,49,1,study,siri,secret,secret,TRUE,3589
60499,2,vocab2,74,330.148,45,4,test,lango,door,door,TRUE,2159
60499,2,vocab2,75,335.097,49,2,test,siri,secret,secret,TRUE,1763
60499,2,vocab2,76,339.084,44,3,test,roho,soul,soul,TRUE,2332
60499,2,vocab2,77,341.625,46,3,test,kichwa,head,head,TRUE,1271
60499,2,vocab2,78,344.542,40,4,test,dunia,world,world,TRUE,1679
60499,2,vocab2,79,352.03,27,4,test,anga,sky,sky,TRUE,6273
60499,2,vocab2,80,365.812,43,3,test,jiwe,stone,?,FALSE,13174
60499,2,vocab2,81,371.718,33,4,test,adhama,honor,honr,FALSE,1387
60499,2,vocab2,82,375.95,35,3,test,tabibu,doctor,?,FALSE,226
60499,2,vocab2,83,386.486,49,3,test,siri,secret,secret,TRUE,4622
60499,2,vocab2,84,394.249,26,6,test,chanjo,scissors,scissors,TRUE,4899
60499,2,vocab2,85,397.143,42,5,test,maliki,king,king,TRUE,1723
60499,2,vocab2,86,401.116,43,4,test,jiwe,stone,stone,TRUE,2856
60499,2,vocab2,87,405.479,28,4,test,ujuzi,knowledge,language,FALSE,2572
60499,2,vocab2,88,421.561,32,4,test,karamu,party,?,FALSE,12062
60499,2,vocab2,89,429.825,35,4,test,tabibu,doctor,doctor,TRUE,3132
60499,2,vocab2,90,433.914,49,4,test,siri,secret,secret,TRUE,2142
60499,2,vocab2,91,436.742,43,5,test,jiwe,stone,stone,TRUE,1672
60499,2,vocab2,92,439.018,33,5,test,adhama,honor,honor,TRUE,1153
60499,2,vocab2,93,442.376,34,4,test,bibi,grandmother,grandmother,TRUE,1252
60499,2,vocab2,94,445.585,26,7,test,chanjo,scissors,scissors,TRUE,1186
60499,2,vocab2,95,451.886,36,4,test,chunga,pot,pot,TRUE,5394
60499,2,vocab2,96,455.198,27,5,test,anga,sky,sky,TRUE,1741
60499,2,vocab2,97,458.694,35,5,test,tabibu,doctor,doctor,TRUE,1872
60499,2,vocab2,98,461.95,31,4,test,barua,letter,letter,TRUE,1960
60499,2,vocab2,99,472.401,50,4,test,chama,society,?,FALSE,9834
60499,2,vocab2,100,478.814,44,4,test,roho,soul,soul,TRUE,1523
60499,2,vocab2,101,483.138,41,4,test,keja,house,house,TRUE,3146
60499,2,vocab2,102,487.282,28,5,test,ujuzi,knowledge,knowledge,TRUE,1598
60499,2,vocab2,103,492.085,43,6,test,jiwe,stone,stone,TRUE,3106
60499,2,vocab2,104,495.207,48,4,test,bustani,garden,garden,TRUE,1859
60499,2,vocab2,105,499.423,37,4,test,skati,skirt,skirt,TRUE,1265
60499,2,vocab2,106,509.799,26,8,test,chanjo,scissors,scissors,TRUE,6724
60499,2,vocab2,107,513.332,35,6,test,tabibu,doctor,doctor,TRUE,1801
60499,2,vocab2,108,516.204,32,5,test,karamu,party,party,TRUE,1568
60499,2,vocab2,109,519.198,36,5,test,chunga,pot,pot,TRUE,1802
60499,2,vocab2,110,522.134,39,4,test,dubu,bear,bear,TRUE,1924
60499,2,vocab2,111,524.735,33,6,test,adhama,honor,honor,TRUE,1357
60499,2,vocab2,112,527.98,30,4,test,kisu,knife,knife,TRUE,1543
60499,2,vocab2,113,531.469,50,5,test,chama,society,society,TRUE,1797
60499,2,vocab2,114,535.423,49,5,test,siri,secret,secret,TRUE,2344
60499,2,vocab2,115,538.163,29,4,test,mbwa,dog,dog,TRUE,1172
60499,2,vocab2,116,540.958,38,4,test,chapati,bread,bread,TRUE,1522
60499,2,vocab2,117,544.054,41,5,test,keja,house,house,TRUE,1912
60499,2,vocab2,118,547.652,43,7,test,jiwe,stone,stone,TRUE,2521
60499,2,vocab2,119,550.424,46,4,test,kichwa,head,head,TRUE,1660
60499,2,vocab2,120,556.132,47,5,test,maziwa,milk,milk,TRUE,4305
60499,2,vocab2,121,559.397,26,9,test,chanjo,scissors,scissors,TRUE,1482
60499,2,vocab2,122,562.874,35,7,test,tabibu,doctor,doctor,TRUE,1775
60499,2,vocab2,123,565.273,43,8,test,jiwe,stone,stone,TRUE,1139
60499,2,vocab2,124,568.402,45,5,test,lango,door,door,TRUE,1674
60499,2,vocab2,125,573.062,47,6,test,maziwa,milk,mik,FALSE,3350
60499,2,vocab2,126,579.956,49,6,test,siri,secret,secret,TRUE,1797
60499,2,vocab2,127,585.436,32,6,test,karamu,party,party,TRUE,2447
60499,2,vocab2,128,588.651,42,6,test,maliki,king,king,TRUE,1419
60499,2,vocab2,129,591.677,35,8,test,tabibu,doctor,doctor,TRUE,1435
60499,2,vocab2,130,594.21,43,9,test,jiwe,stone,stone,TRUE,1272
60499,2,vocab2,131,597.232,40,5,test,dunia,world,world,TRUE,1632
60499,2,vocab2,132,599.917,27,6,test,anga,sky,sky,TRUE,1345
60499,2,vocab2,133,602.736,47,7,test,maziwa,milk,milk,TRUE,1104
60499,2,vocab2,134,605.492,44,5,test,roho,soul,soul,TRUE,1274
60499,2,vocab2,135,608.532,33,7,test,adhama,honor,honor,TRUE,1806
60499,2,vocab2,136,612.65,28,6,test,ujuzi,knowledge,knowledge,TRUE,1633
60499,2,vocab2,137,616.32,26,10,test,chanjo,scissors,scissors,TRUE,1261
60499,2,vocab2,138,619.416,41,6,test,keja,house,house,TRUE,1675
60499,2,vocab2,139,623.542,49,7,test,siri,secret,secret,TRUE,2088
60499,2,vocab2,140,629.169,50,6,test,chama,society,society,TRUE,3966
60499,2,vocab2,141,633.436,36,6,test,chunga,pot,pot,TRUE,2596
60499,2,vocab2,142,636.278,32,7,test,karamu,party,party,TRUE,1440
60499,2,vocab2,143,639.079,34,5,test,bibi,grandmother,grandmother,TRUE,1186
60499,2,vocab2,144,642.309,50,7,test,chama,society,society,TRUE,1346
60499,2,vocab2,145,644.875,36,7,test,chunga,pot,pot,TRUE,1549
60499,2,vocab2,146,649.474,47,8,test,maziwa,milk,milk,TRUE,1204
60499,2,vocab2,147,651.999,31,5,test,barua,letter,letter,TRUE,1195
60499,2,vocab2,148,655.279,33,8,test,adhama,honor,honor,TRUE,2086
60499,2,vocab2,149,657.864,49,8,test,siri,secret,secret,TRUE,1000
60499,2,vocab2,150,662.773,35,9,test,tabibu,doctor,doctor,TRUE,1365
60499,2,vocab2,151,665.516,48,5,test,bustani,garden,garden,TRUE,1203
60499,2,vocab2,152,668.283,36,8,test,chunga,pot,pot,TRUE,1515
60499,2,vocab2,153,671.563,37,5,test,skati,skirt,skirt,TRUE,1042
60499,2,vocab2,154,674.195,39,5,test,dubu,bear,bear,TRUE,1363
60499,2,vocab2,155,676.408,43,10,test,jiwe,stone,stone,TRUE,1117
60499,2,vocab2,156,679.985,45,6,test,lango,door,door,TRUE,946
60499,2,vocab2,157,682.616,50,8,test,chama,society,society,TRUE,1107
60499,2,vocab2,158,685.078,30,5,test,kisu,knife,knife,TRUE,1009
60499,2,vocab2,159,687.877,38,5,test,chapati,bread,bread,TRUE,1489
60499,2,vocab2,160,690.474,41,7,test,keja,house,house,TRUE,1386
60499,2,vocab2,161,692.695,29,5,test,mbwa,dog,dog,TRUE,1014
60499,2,vocab2,162,695.333,32,8,test,karamu,party,party,TRUE,1209
60499,2,vocab2,163,697.823,46,5,test,kichwa,head,head,TRUE,1180
60499,2,vocab2,164,700.233,33,9,test,adhama,honor,honor,TRUE,888
60499,2,vocab2,165,702.712,36,9,test,chunga,pot,pot,TRUE,1418
60499,2,vocab2,166,706.589,49,9,test,siri,secret,secret,TRUE,962
60499,2,vocab2,167,709.208,35,10,test,tabibu,doctor,doctor,TRUE,1158
60499,2,vocab2,168,714.055,26,11,test,chanjo,scissors,scissors,TRUE,2734
60499,2,vocab2,169,717.36,50,9,test,chama,society,society,TRUE,1298
60499,2,vocab2,170,719.757,27,7,test,anga,sky,sky,TRUE,987
60499,2,vocab2,171,722.625,40,6,test,dunia,world,world,TRUE,1187
60499,2,vocab2,172,729.124,28,7,test,ujuzi,knowledge,knowledge,TRUE,1069
60499,2,vocab2,173,731.474,42,7,test,maliki,king,king,TRUE,1281
60499,2,vocab2,174,733.533,43,11,test,jiwe,stone,stone,TRUE,1002
60499,2,vocab2,175,735.965,41,8,test,keja,house,house,TRUE,1268
60499,2,vocab2,176,739.131,36,10,test,chunga,pot,pot,TRUE,1916
60499,2,vocab2,177,741.795,49,10,test,siri,secret,secret,TRUE,971
60499,2,vocab2,178,744.611,35,11,test,tabibu,doctor,doctor,TRUE,1177
60499,2,vocab2,179,747.796,39,6,test,dubu,bear,bear,TRUE,1864
60499,2,vocab2,180,750.606,31,6,test,barua,letter,letter,TRUE,79
60499,2,vocab2,181,756.848,26,12,test,chanjo,scissors,scissors,TRUE,2369
60499,2,vocab2,182,763.619,47,9,test,maziwa,milk,milk,TRUE,1632
60499,2,vocab2,183,766.659,26,13,test,chanjo,scissors,scissors,TRUE,977
60499,2,vocab2,184,774.373,47,10,test,maziwa,milk,milk,TRUE,1200
60499,2,vocab2,185,777.48,36,11,test,chunga,pot,pot,TRUE,2049
60499,2,vocab2,186,779.81,32,9,test,karamu,party,party,TRUE,1030
60499,2,vocab2,187,782.038,44,6,test,roho,soul,soul,TRUE,1180
60499,2,vocab2,188,784.051,41,9,test,keja,house,house,TRUE,915
60499,2,vocab2,189,786.661,45,7,test,lango,door,door,TRUE,1324
60499,2,vocab2,190,790.169,50,10,test,chama,society,society,TRUE,1135
60499,2,vocab2,191,792.414,36,12,test,chunga,pot,pot,TRUE,1283
60499,2,vocab2,192,794.905,42,8,test,maliki,king,king,TRUE,1236
60499,2,vocab2,193,797.11,33,10,test,adhama,honor,honor,TRUE,964
60499,2,vocab2,194,800.437,35,12,test,tabibu,doctor,doctor,TRUE,1281
60499,2,vocab2,195,802.847,39,7,test,dubu,bear,bear,TRUE,1162
60499,2,vocab2,196,805.882,47,11,test,maziwa,milk,milk,TRUE,1782
60499,2,vocab2,197,808.186,36,13,test,chunga,pot,pot,TRUE,1339
60499,2,vocab2,198,811.755,26,14,test,chanjo,scissors,scissors,TRUE,1255
60499,2,vocab2,199,814.036,36,14,test,chunga,pot,pot,TRUE,1255
60499,2,vocab2,200,819.281,28,8,test,ujuzi,knowledge,knowledge,TRUE,1476
60499,2,vocab2,201,821.701,36,15,test,chunga,pot,pot,TRUE,1170
60499,2,vocab2,202,823.744,40,7,test,dunia,world,world,TRUE,910
60499,2,vocab2,203,826.153,36,16,test,chunga,pot,pot,TRUE,1503
60499,2,vocab2,204,831.982,50,11,test,chama,society,society,TRUE,3555
60499,2,vocab2,205,835.506,36,17,test,chunga,pot,pot,TRUE,1620
60499,2,vocab2,206,840.367,28,9,test,ujuzi,knowledge,knowledge,TRUE,2607
60499,2,vocab2,207,842.734,36,18,test,chunga,pot,pot,TRUE,1337
60499,2,vocab2,208,847.248,47,12,test,maziwa,milk,milk,TRUE,2882
60499,2,vocab2,209,850.287,36,19,test,chunga,pot,pot,TRUE,1283
60499,2,vocab2,210,855.345,26,15,test,chanjo,scissors,scissors,TRUE,1205
60499,2,vocab2,211,857.187,36,20,test,chunga,pot,pot,TRUE,948
60499,2,vocab2,212,860.35,35,13,test,tabibu,doctor,doctor,TRUE,1132
60499,2,vocab2,213,861.974,36,21,test,chunga,pot,pot,TRUE,687
60499,2,vocab2,214,864.361,49,11,test,siri,secret,secret,TRUE,858
60499,2,vocab2,215,866.221,36,22,test,chunga,pot,pot,TRUE,568
60499,2,vocab2,216,868.611,43,12,test,jiwe,stone,soul,FALSE,1041
60499,2,vocab2,217,875.829,47,13,test,maziwa,milk,milk,TRUE,1598
60499,2,vocab2,218,878.625,27,8,test,anga,sky,sky,TRUE,1380
60499,2,vocab2,219,880.977,47,14,test,maziwa,milk,milk,TRUE,879
60499,2,vocab2,220,883.83,45,8,test,lango,door,door,TRUE,1283
60499,2,vocab2,221,885.697,36,23,test,chunga,pot,pot,TRUE,881
60499,2,vocab2,222,888.679,41,10,test,keja,house,house,TRUE,1874
60499,2,vocab2,223,890.956,47,15,test,maziwa,milk,milk,TRUE,883
60499,2,vocab2,224,893.138,39,8,test,dubu,bear,bear,TRUE,1052
60499,2,vocab2,225,896.851,50,12,test,chama,society,society,TRUE,1989
60499,2,vocab2,226,899.978,26,16,test,chanjo,scissors,scissors,TRUE,1325
60499,2,vocab2,227,905.274,28,10,test,ujuzi,knowledge,knowledge,TRUE,2825
60499,2,vocab2,228,909.097,47,16,test,maziwa,milk,milk,TRUE,1526
60499,2,vocab2,229,911.436,38,6,test,chapati,bread,bread,TRUE,971
60499,2,vocab2,230,915.123,34,6,test,bibi,grandmother,grandmother,TRUE,1332
60499,2,vocab2,231,917.209,47,17,test,maziwa,milk,milk,TRUE,939
60499,2,vocab2,232,920.035,27,9,test,anga,sky,sky,TRUE,1433
60499,2,vocab2,233,923.769,32,10,test,karamu,party,party,TRUE,2435
60499,2,vocab2,234,928.625,50,13,test,chama,society,society,TRUE,1475
60499,2,vocab2,235,931.195,48,6,test,bustani,garden,garden,TRUE,1188
60499,2,vocab2,236,934.169,50,14,test,chama,society,society,TRUE,939
60499,2,vocab2,237,936.712,32,11,test,karamu,party,party,TRUE,1112
60499,2,vocab2,238,941.964,26,17,test,chanjo,scissors,scissors,TRUE,1661
60499,2,vocab2,239,944.526,36,24,test,chunga,pot,pot,TRUE,1563
60499,2,vocab2,240,947.04,43,13,test,jiwe,stone,stone,TRUE,1380
60499,2,vocab2,241,950.361,50,15,test,chama,society,society,TRUE,972
60499,2,vocab2,242,953.561,35,14,test,tabibu,doctor,doctor,TRUE,1242
60499,2,vocab2,243,956.392,42,9,test,maliki,king,king,TRUE,1491
60499,2,vocab2,244,959.02,44,7,test,roho,soul,soul,TRUE,1300
60499,2,vocab2,245,963.267,28,11,test,ujuzi,knowledge,knowledge,TRUE,1080
60499,2,vocab2,246,966.5,37,6,test,skati,skirt,skirt,TRUE,1820
60499,2,vocab2,247,968.757,43,14,test,jiwe,stone,stone,TRUE,1162
60499,2,vocab2,248,970.927,36,25,test,chunga,pot,pot,TRUE,1209
60499,2,vocab2,249,973.834,50,16,test,chama,society,society,TRUE,1002
60499,2,vocab2,250,978.094,41,11,test,keja,house,house,TRUE,1034
60499,2,vocab2,251,980.253,40,8,test,dunia,world,world,TRUE,1061
60499,2,vocab2,252,984.269,26,18,test,chanjo,scissors,scissors,TRUE,1575
60499,2,vocab2,253,989.867,46,6,test,kichwa,head,head,TRUE,1771
60499,2,vocab2,254,992.069,45,9,test,lango,door,door,TRUE,1149
60499,2,vocab2,255,994.647,30,6,test,kisu,knife,knife,TRUE,1052
60499,2,vocab2,256,997.532,29,6,test,mbwa,dog,dog,TRUE,1417
60499,2,vocab2,257,1000.254,36,26,test,chunga,pot,pot,TRUE,1629
60499,2,vocab2,258,1003.525,50,17,test,chama,society,society,TRUE,1447
60499,2,vocab2,259,1005.523,36,27,test,chunga,pot,pot,TRUE,868
60499,2,vocab2,260,1008.652,47,18,test,maziwa,milk,milk,TRUE,1835
60499,2,vocab2,261,1013.406,26,19,test,chanjo,scissors,scissors,TRUE,1836
60499,2,vocab2,262,1017.851,46,7,test,kichwa,head,head,TRUE,3078
60499,2,vocab2,263,1021.543,26,20,test,chanjo,scissors,scissors,TRUE,1314
60499,2,vocab2,264,1023.966,27,10,test,anga,sky,sky,TRUE,846
60499,2,vocab2,265,1027.902,26,21,test,chanjo,scissors,scissors,TRUE,1627
60499,2,vocab2,266,1030.222,33,11,test,adhama,honor,honor,TRUE,994
60499,2,vocab2,267,1033.619,26,22,test,chanjo,scissors,scissors,TRUE,1463
60499,2,vocab2,268,1038.166,50,18,test,chama,society,society,TRUE,1216
60499,2,vocab2,269,1041.224,26,23,test,chanjo,scissors,scissors,TRUE,1194
60499,2,vocab2,270,1044.56,28,12,test,ujuzi,knowledge,knowledge,TRUE,1086
60499,2,vocab2,271,1048.057,26,24,test,chanjo,scissors,scissors,TRUE,1589
60499,2,vocab2,272,1051.807,35,15,test,tabibu,doctor,doctor,TRUE,1270
60499,2,vocab2,273,1054.795,26,25,test,chanjo,scissors,scissors,TRUE,1235
60499,2,vocab2,274,1056.768,36,28,test,chunga,pot,pot,TRUE,979
60499,2,vocab2,275,1059.541,26,26,test,chanjo,scissors,scissors,TRUE,895
60499,2,vocab2,276,1062.49,47,19,test,maziwa,milk,milk,TRUE,1250
60499,2,vocab2,277,1065.491,26,27,test,chanjo,scissors,scissors,TRUE,1198
60499,2,vocab2,278,1068.124,43,15,test,jiwe,stone,stone,TRUE,1469
60499,2,vocab2,279,1070.748,26,28,test,chanjo,scissors,scissors,TRUE,795
60499,2,vocab2,280,1073.862,32,12,test,karamu,party,party,TRUE,1107
60499,2,vocab2,281,1077.333,26,29,test,chanjo,scissors,scissors,TRUE,886
60499,2,vocab2,282,1079.892,41,12,test,keja,house,house,TRUE,1371
60499,2,vocab2,283,1082.896,36,29,test,chunga,pot,pot,TRUE,2010
60499,2,vocab2,284,1085.825,42,10,test,maliki,king,king,TRUE,1436
60499,2,vocab2,285,1089.222,43,16,test,jiwe,stone,stone,TRUE,1007
60499,2,vocab2,286,1091.342,44,8,test,roho,soul,soul,TRUE,891
60499,2,vocab2,287,1094.318,46,8,test,kichwa,head,head,TRUE,1472
60499,2,vocab2,288,1096.97,47,20,test,maziwa,milk,milk,TRUE,1506
60499,2,vocab2,289,1101.333,26,30,test,chanjo,scissors,scissors,TRUE,2514
60499,2,vocab2,290,1103.6,47,21,test,maziwa,milk,milk,TRUE,897
60499,2,vocab2,291,1108.572,36,30,test,chunga,pot,pot,TRUE,3652
60499,2,vocab2,292,1111.629,35,16,test,tabibu,doctor,doctor,TRUE,1464
60499,2,vocab2,293,1113.785,36,31,test,chunga,pot,pot,TRUE,1063
60499,2,vocab2,294,1117.775,26,31,test,chanjo,scissors,scissors,TRUE,1685
60499,2,vocab2,295,1124.016,28,13,test,ujuzi,knowledge,knowledge,TRUE,991
60499,2,vocab2,296,1129.996,26,32,test,chanjo,scissors,scissors,TRUE,2969
60499,2,vocab2,297,1132.699,46,9,test,kichwa,head,head,TRUE,1437
60499,2,vocab2,298,1135.616,26,33,test,chanjo,scissors,scissors,TRUE,976
60499,2,vocab2,299,1137.777,43,17,test,jiwe,stone,stone,TRUE,1043
60499,2,vocab2,300,1141.833,26,34,test,chanjo,scissors,scissors,TRUE,1132
60499,2,vocab2,301,1144.513,45,10,test,lango,door,door,TRUE,1596
60499,2,vocab2,302,1147.096,26,35,test,chanjo,scissors,scissors,TRUE,891
60499,2,vocab2,303,1149.983,34,7,test,bibi,grandmother,grandmother,TRUE,942
60499,2,vocab2,304,1152.753,26,36,test,chanjo,scissors,scissors,TRUE,853
60499,2,vocab2,305,1156.344,36,32,test,chunga,pot,pot,TRUE,2279
60499,2,vocab2,306,1160.712,39,9,test,dubu,bear,bear,TRUE,1472
60499,2,vocab2,307,1162.975,36,33,test,chunga,pot,pot,TRUE,1244
60499,2,vocab2,308,1165.994,26,37,test,chanjo,scissors,scissors,TRUE,1018
60499,2,vocab2,309,1168.085,36,34,test,chunga,pot,pot,TRUE,959
60499,2,vocab2,310,1171.027,46,10,test,kichwa,head,head,TRUE,1609
60499,2,vocab2,311,1174.164,41,13,test,keja,house,house,TRUE,1779
60499,2,vocab2,312,1176.711,36,35,test,chunga,pot,pot,TRUE,1459
60499,2,vocab2,313,1180.155,35,17,test,tabibu,doctor,doctor,TRUE,1225
60499,2,vocab2,314,1183.038,47,22,test,maziwa,milk,milk,TRUE,1627
60499,2,vocab2,315,1185.632,36,36,test,chunga,pot,pot,TRUE,1427
60499,2,vocab2,316,1188.19,47,23,test,maziwa,milk,milk,TRUE,1204
60499,2,vocab2,317,1190.441,36,37,test,chunga,pot,pot,TRUE,968
60499,2,vocab2,318,1193.316,47,24,test,maziwa,milk,milk,TRUE,626
60499,2,vocab2,319,1195.751,37,7,test,skati,skirt,skirt,TRUE,993
60499,2,vocab2,320,1198.559,46,11,test,kichwa,head,head,TRUE,1498
60499,2,vocab2,321,1201.185,41,14,test,keja,house,house,TRUE,1385
60499,3,vocab3,1,12.659,52,1,study,ajabu,wonder,ajabu,FALSE,10954
60499,3,vocab3,2,19.176,52,2,test,ajabu,wonder,wonder,TRUE,1477
60499,3,vocab3,3,31.321,53,1,study,tumaini,hope,hope,TRUE,4034
60499,3,vocab3,4,33.497,53,2,test,tumaini,hope,hope,TRUE,888
60499,3,vocab3,5,39.904,67,1,study,tofaa,apple,tofaa,FALSE,3108
60499,3,vocab3,6,44.056,70,1,study,elimu,science,?,FALSE,132
60499,3,vocab3,7,50.721,67,2,test,tofaa,apple,apple,TRUE,1282
60499,3,vocab3,8,56.259,70,2,test,elimu,science,science,TRUE,1466
60499,3,vocab3,9,62.471,65,1,study,chakula,food,food,TRUE,4746
60499,3,vocab3,10,68.869,61,1,study,limau,lemon,lemon,TRUE,2587
60499,3,vocab3,11,73.449,65,2,test,chakula,food,food,TRUE,3388
60499,3,vocab3,12,75.708,61,2,test,limau,lemon,lemon,TRUE,942
60499,3,vocab3,13,78.246,52,3,test,ajabu,wonder,wonder,TRUE,1134
60499,3,vocab3,14,83.147,72,1,study,maji,ice,ice,TRUE,3819
60499,3,vocab3,15,96.717,53,3,test,tumaini,hope,?,FALSE,12957
60499,3,vocab3,16,102.641,72,2,test,maji,ice,ice,TRUE,1626
60499,3,vocab3,17,106.482,70,3,test,elimu,science,science,TRUE,2292
60499,3,vocab3,18,109.29,67,3,test,tofaa,apple,apple,TRUE,1473
60499,3,vocab3,19,113.561,59,1,study,baba,father,father,TRUE,1504
60499,3,vocab3,20,124.084,56,1,study,maslahi,interest,interest,TRUE,8375
60499,3,vocab3,21,127.086,59,2,test,baba,father,father,TRUE,998
60499,3,vocab3,22,131.778,56,2,test,maslahi,interest,interest,TRUE,3186
60499,3,vocab3,23,139.633,65,3,test,chakula,food,food,TRUE,4633
60499,3,vocab3,24,142.277,61,3,test,limau,lemon,lemon,TRUE,1032
60499,3,vocab3,25,144.958,53,4,test,tumaini,hope,hope,TRUE,1443
60499,3,vocab3,26,152.821,66,1,study,wakati,alarm,alarm,TRUE,4605
60499,3,vocab3,27,156.083,72,3,test,maji,ice,ice,TRUE,2132
60499,3,vocab3,28,160.048,66,2,test,wakati,alarm,alarm,TRUE,1530
60499,3,vocab3,29,166.867,75,1,study,ufu,death,death,TRUE,4061
60499,3,vocab3,30,177.347,62,1,study,kamba,rope,rope,TRUE,8452
60499,3,vocab3,31,180.133,75,2,test,ufu,death,death,TRUE,1177
60499,3,vocab3,32,183.871,62,2,test,kamba,rope,rope,TRUE,1346
60499,3,vocab3,33,186.19,65,4,test,chakula,food,food,TRUE,1128
60499,3,vocab3,34,189.318,59,3,test,baba,father,father,TRUE,1097
60499,3,vocab3,35,193.572,56,3,test,maslahi,interest,interest,TRUE,2714
60499,3,vocab3,36,200.061,73,1,study,saduku,box,box,TRUE,3474
60499,3,vocab3,37,207.154,64,1,study,kijana,boy,boy,TRUE,5598
60499,3,vocab3,38,209.961,73,2,test,saduku,box,box,TRUE,1629
60499,3,vocab3,39,212.144,64,2,test,kijana,boy,boy,TRUE,1173
60499,3,vocab3,40,216.25,66,3,test,wakati,alarm,alarm,TRUE,1844
60499,3,vocab3,41,224.225,51,1,study,kanisa,church,kanisa,FALSE,4996
60499,3,vocab3,42,230.488,75,3,test,ufu,death,death,TRUE,1180
60499,3,vocab3,43,234.116,51,2,test,kanisa,church,chuch,FALSE,1256
60499,3,vocab3,44,241.734,62,3,test,kamba,rope,rope,TRUE,2989
60499,3,vocab3,45,252.479,55,1,study,bahari,sea,sea,TRUE,5021
60499,3,vocab3,46,257.759,57,1,study,basi,bus,bus,TRUE,3329
60499,3,vocab3,47,260.851,55,2,test,bahari,sea,sea,TRUE,968
60499,3,vocab3,48,263.184,57,2,test,basi,bus,bus,TRUE,683
60499,3,vocab3,49,265.95,73,3,test,saduku,box,box,TRUE,1275
60499,3,vocab3,50,269.238,64,3,test,kijana,boy,boy,TRUE,1676
60499,3,vocab3,51,275.35,56,4,test,maslahi,interest,interest,TRUE,2745
60499,3,vocab3,52,279.55,65,5,test,chakula,food,food,TRUE,2869
60499,3,vocab3,53,282.284,62,4,test,kamba,rope,rope,TRUE,972
60499,3,vocab3,54,285.955,51,3,test,kanisa,church,church,TRUE,1971
60499,3,vocab3,55,291.143,70,4,test,elimu,science,science,TRUE,3613
60499,3,vocab3,56,302.009,54,1,study,degaga,glasses,glasses,TRUE,5436
60499,3,vocab3,57,308.95,58,1,study,kioo,mirror,kioo,FALSE,3559
60499,3,vocab3,58,315.678,54,2,test,degaga,glasses,glasses,TRUE,1700
60499,3,vocab3,59,318.491,58,2,test,kioo,mirror,mirror,TRUE,1478
60499,3,vocab3,60,321.909,57,3,test,basi,bus,bus,TRUE,2416
60499,3,vocab3,61,324.46,55,3,test,bahari,sea,sea,TRUE,1576
60499,3,vocab3,62,326.881,65,6,test,chakula,food,food,TRUE,1164
60499,3,vocab3,63,333.581,63,1,study,dhoruba,storm,storm,TRUE,3677
60499,3,vocab3,64,340.131,69,1,study,kitanda,bed,bed,TRUE,3912
60499,3,vocab3,65,342.879,63,2,test,dhoruba,storm,storm,TRUE,1353
60499,3,vocab3,66,345.182,69,2,test,kitanda,bed,bed,TRUE,1224
60499,3,vocab3,67,353.657,71,1,study,jioni,evening,evening,TRUE,3199
60499,3,vocab3,68,357.089,56,5,test,maslahi,interest,interest,TRUE,1962
60499,3,vocab3,69,359.922,71,2,test,jioni,evening,evening,TRUE,1368
60499,3,vocab3,70,363.213,70,5,test,elimu,science,science,TRUE,1524
60499,3,vocab3,71,366.495,54,3,test,degaga,glasses,glasses,TRUE,1333
60499,3,vocab3,72,368.901,58,3,test,kioo,mirror,mirror,TRUE,1059
60499,3,vocab3,73,375.496,68,1,study,kiti,chair,chair,TRUE,3968
60499,3,vocab3,74,379.024,53,5,test,tumaini,hope,hope,TRUE,2273
60499,3,vocab3,75,382.775,68,2,test,kiti,chair,chair,TRUE,1181
60499,3,vocab3,76,389.7,60,1,study,kofia,hat,hat,TRUE,3248
60499,3,vocab3,77,392.59,63,3,test,dhoruba,storm,storm,TRUE,1717
60499,3,vocab3,78,395.09,60,2,test,kofia,hat,hat,TRUE,1015
60499,3,vocab3,79,397.874,69,3,test,kitanda,bed,bed,TRUE,1833
60499,3,vocab3,80,405.473,74,1,study,farasi,horse,horse,TRUE,3875
60499,3,vocab3,81,408.435,71,3,test,jioni,evening,evening,TRUE,1570
60499,3,vocab3,82,411.854,74,2,test,farasi,horse,horse,TRUE,1188
60499,3,vocab3,83,422.561,52,4,test,ajabu,wonder,?,FALSE,9424
60499,3,vocab3,84,429.371,65,7,test,chakula,food,food,TRUE,2142
60499,3,vocab3,85,432.831,68,3,test,kiti,chair,chair,TRUE,1633
60499,3,vocab3,86,442.537,72,4,test,maji,ice,?,FALSE,9087
60499,3,vocab3,87,448.421,60,3,test,kofia,hat,hat,TRUE,1418
60499,3,vocab3,88,451.199,67,4,test,tofaa,apple,apple,TRUE,1501
60499,3,vocab3,89,454.68,61,4,test,limau,lemon,lemon,TRUE,1205
60499,3,vocab3,90,457.82,74,3,test,farasi,horse,horse,TRUE,1397
60499,3,vocab3,91,460.427,57,4,test,basi,bus,bus,TRUE,1595
60499,3,vocab3,92,463.53,59,4,test,baba,father,father,TRUE,1041
60499,3,vocab3,93,467.231,66,4,test,wakati,alarm,alarm,TRUE,2552
60499,3,vocab3,94,475.56,62,5,test,kamba,rope,?,FALSE,7072
60499,3,vocab3,95,482.673,52,5,test,ajabu,wonder,wonder,TRUE,1748
60499,3,vocab3,96,485.906,75,4,test,ufu,death,death,TRUE,1964
60499,3,vocab3,97,490.77,64,4,test,kijana,boy,boy,TRUE,3260
60499,3,vocab3,98,493.117,73,4,test,saduku,box,box,TRUE,1188
60499,3,vocab3,99,496.415,56,6,test,maslahi,interest,interest,TRUE,1920
60499,3,vocab3,100,500.184,51,4,test,kanisa,church,church,TRUE,1387
60499,3,vocab3,101,502.904,62,6,test,kamba,rope,rope,TRUE,1576
60499,3,vocab3,102,506.055,55,4,test,bahari,sea,sea,TRUE,1877
60499,3,vocab3,103,509.309,72,5,test,maji,ice,ice,TRUE,2107
60499,3,vocab3,104,511.703,58,4,test,kioo,mirror,mirror,TRUE,1075
60499,3,vocab3,105,514.144,65,8,test,chakula,food,food,TRUE,1329
60499,3,vocab3,106,517.899,54,4,test,degaga,glasses,glasse,FALSE,1313
60499,3,vocab3,107,524.909,64,5,test,kijana,boy,boy,TRUE,2087
60499,3,vocab3,108,528.014,69,4,test,kitanda,bed,bed,TRUE,1536
60499,3,vocab3,109,531.218,63,4,test,dhoruba,storm,storm,TRUE,1384
60499,3,vocab3,110,534.695,70,6,test,elimu,science,science,TRUE,1949
60499,3,vocab3,111,538.012,71,4,test,jioni,evening,evening,TRUE,1523
60499,3,vocab3,112,540.663,68,4,test,kiti,chair,chair,TRUE,1513
60499,3,vocab3,113,545.669,53,6,test,tumaini,hope,hope,TRUE,3503
60499,3,vocab3,114,548.073,62,7,test,kamba,rope,rope,TRUE,1219
60499,3,vocab3,115,550.768,66,5,test,wakati,alarm,alarm,TRUE,1057
60499,3,vocab3,116,553.175,60,4,test,kofia,hat,hat,TRUE,1258
60499,3,vocab3,117,555.874,74,4,test,farasi,horse,horse,TRUE,1514
60499,3,vocab3,118,559.71,56,7,test,maslahi,interest,interest,TRUE,1062
60499,3,vocab3,119,562.277,64,6,test,kijana,boy,boy,TRUE,1240
60499,3,vocab3,120,565.385,72,6,test,maji,ice,ice,TRUE,2140
60499,3,vocab3,121,567.471,57,5,test,basi,bus,bus,TRUE,968
60499,3,vocab3,122,570.167,51,5,test,kanisa,church,church,TRUE,1168
60499,3,vocab3,123,573.883,54,5,test,degaga,glasses,glasses,TRUE,954
60499,3,vocab3,124,577.119,53,7,test,tumaini,hope,hope,TRUE,1980
60499,3,vocab3,125,579.531,52,6,test,ajabu,wonder,wonder,TRUE,978
60499,3,vocab3,126,582.426,70,7,test,elimu,science,science,TRUE,1506
60499,3,vocab3,127,585.453,53,8,test,tumaini,hope,hope,TRUE,1224
60499,3,vocab3,128,587.724,64,7,test,kijana,boy,boy,TRUE,976
60499,3,vocab3,129,591.228,67,5,test,tofaa,apple,apple,TRUE,1114
60499,3,vocab3,130,593.672,61,5,test,limau,lemon,lemon,TRUE,802
60499,3,vocab3,131,595.956,65,9,test,chakula,food,food,TRUE,1003
60499,3,vocab3,132,598.116,72,7,test,maji,ice,ice,TRUE,1166
60499,3,vocab3,133,600.405,59,5,test,baba,father,father,TRUE,952
60499,3,vocab3,134,604.458,75,5,test,ufu,death,death,TRUE,1045
60499,3,vocab3,135,607.138,62,8,test,kamba,rope,rope,TRUE,1603
60499,3,vocab3,136,615.116,56,8,test,maslahi,interest,interest,TRUE,6277
60499,3,vocab3,137,617.868,73,5,test,saduku,box,box,TRUE,1147
60499,3,vocab3,138,621.238,64,8,test,kijana,boy,boy,TRUE,2057
60499,3,vocab3,139,624.514,55,5,test,bahari,sea,sea,TRUE,2065
60499,3,vocab3,140,627.572,58,5,test,kioo,mirror,mirror,TRUE,1042
60499,3,vocab3,141,631.106,70,8,test,elimu,science,science,TRUE,1316
60499,3,vocab3,142,633.83,69,5,test,kitanda,bed,bed,TRUE,1749
60499,3,vocab3,143,636.484,63,5,test,dhoruba,storm,storm,TRUE,1108
60499,3,vocab3,144,640.159,71,5,test,jioni,evening,evening,TRUE,1080
60499,3,vocab3,145,642.379,72,8,test,maji,ice,ice,TRUE,1082
60499,3,vocab3,146,645.349,66,6,test,wakati,alarm,alarm,TRUE,1638
60499,3,vocab3,147,647.704,68,5,test,kiti,chair,chair,TRUE,1191
60499,3,vocab3,148,650.095,53,9,test,tumaini,hope,hope,TRUE,1311
60499,3,vocab3,149,654.118,64,9,test,kijana,boy,boy,TRUE,2622
60499,3,vocab3,150,656.7,62,9,test,kamba,rope,rope,TRUE,1150
60499,3,vocab3,151,658.818,60,5,test,kofia,hat,hat,TRUE,940
60499,3,vocab3,152,665.735,56,9,test,maslahi,interest,interest,TRUE,1185
60499,3,vocab3,153,668.581,74,5,test,farasi,horse,horse,TRUE,1698
60499,3,vocab3,154,671.644,55,6,test,bahari,sea,sea,TRUE,1883
60499,3,vocab3,155,676.461,64,10,test,kijana,boy,boy,TRUE,3546
60499,3,vocab3,156,680.73,72,9,test,maji,ice,ice,TRUE,3006
60499,3,vocab3,157,684.298,64,11,test,kijana,boy,boy,TRUE,2292
60499,3,vocab3,158,686.838,69,6,test,kitanda,bed,bed,TRUE,1552
60499,3,vocab3,159,689.264,64,12,test,kijana,boy,boy,TRUE,1161
60499,3,vocab3,160,691.599,53,10,test,tumaini,hope,hope,TRUE,1195
60499,3,vocab3,161,693.819,64,13,test,kijana,boy,boy,TRUE,918
60499,3,vocab3,162,696.504,70,9,test,elimu,science,science,TRUE,1075
60499,3,vocab3,163,699.669,64,14,test,kijana,boy,boy,TRUE,838
60499,3,vocab3,164,702.614,54,6,test,degaga,glasses,glasses,TRUE,1060
60499,3,vocab3,165,705.141,56,10,test,maslahi,interest,interest,TRUE,1185
60499,3,vocab3,166,710.542,64,15,test,kijana,boy,boy,TRUE,1117
60499,3,vocab3,167,712.816,66,7,test,wakati,alarm,alarm,TRUE,1172
60499,3,vocab3,168,715.073,72,10,test,maji,ice,ice,TRUE,1005
60499,3,vocab3,169,717.33,57,6,test,basi,bus,bus,TRUE,993
60499,3,vocab3,170,721.455,51,6,test,kanisa,church,church,TRUE,1112
60499,3,vocab3,171,723.731,62,10,test,kamba,rope,rope,TRUE,1133
60499,3,vocab3,172,727.265,55,7,test,bahari,sea,sea,TRUE,1849
60499,3,vocab3,173,732.868,64,16,test,kijana,boy,boy,TRUE,4104
60499,3,vocab3,174,735.681,55,8,test,bahari,sea,sea,TRUE,1744
60499,3,vocab3,175,737.931,74,6,test,farasi,horse,horse,TRUE,927
60499,3,vocab3,176,740.323,53,11,test,tumaini,hope,hope,TRUE,1241
60499,3,vocab3,177,742.719,69,7,test,kitanda,bed,bed,TRUE,1258
60499,3,vocab3,178,745.216,65,10,test,chakula,food,food,TRUE,1273
60499,3,vocab3,179,751.226,64,17,test,kijana,boy,boy,TRUE,2976
60499,3,vocab3,180,754.273,52,7,test,ajabu,wonder,wonder,TRUE,1742
60499,3,vocab3,181,757.814,64,18,test,kijana,boy,boy,TRUE,1869
60499,3,vocab3,182,760.522,55,9,test,bahari,sea,sea,TRUE,1003
60499,3,vocab3,183,763.018,64,19,test,kijana,boy,boy,TRUE,1060
60499,3,vocab3,184,766.954,52,8,test,ajabu,wonder,wonder,TRUE,1340
60499,3,vocab3,185,769.139,64,20,test,kijana,boy,boy,TRUE,806
60499,3,vocab3,186,772.586,70,10,test,elimu,science,science,TRUE,973
60499,3,vocab3,187,774.715,64,21,test,kijana,boy,boy,TRUE,819
60499,3,vocab3,188,776.962,66,8,test,wakati,alarm,alarm,TRUE,928
60499,3,vocab3,189,779.458,64,22,test,kijana,boy,boy,TRUE,918
60499,3,vocab3,190,782.009,52,9,test,ajabu,wonder,wonder,TRUE,1190
60499,3,vocab3,191,785.646,71,6,test,jioni,evening,evening,TRUE,1967
60499,3,vocab3,192,788.078,68,6,test,kiti,chair,chair,TRUE,1121
60499,3,vocab3,193,791.344,55,10,test,bahari,sea,sea,TRUE,1950
60499,3,vocab3,194,793.511,69,8,test,kitanda,bed,bed,TRUE,1177
60499,3,vocab3,195,796.07,64,23,test,kijana,boy,boy,TRUE,888
60499,3,vocab3,196,799.973,56,11,test,maslahi,interest,interest,TRUE,2279
60499,3,vocab3,197,802.338,55,11,test,bahari,sea,sea,TRUE,905
60499,3,vocab3,198,805.159,53,12,test,tumaini,hope,hope,TRUE,966
60499,3,vocab3,199,807.518,62,11,test,kamba,rope,rope,TRUE,1150
60499,3,vocab3,200,810.434,52,10,test,ajabu,wonder,wonder,TRUE,1232
60499,3,vocab3,201,814.706,70,11,test,elimu,science,science,TRUE,2433
60499,3,vocab3,202,817.574,55,12,test,bahari,sea,sea,TRUE,960
60499,3,vocab3,203,821.242,65,11,test,chakula,food,food,TRUE,1051
60499,3,vocab3,204,824.683,67,6,test,tofaa,apple,apple,TRUE,1067
60499,3,vocab3,205,826.945,63,6,test,dhoruba,storm,storm,TRUE,1107
60499,3,vocab3,206,829.815,61,6,test,limau,lemon,lemon,TRUE,790
60499,3,vocab3,207,833.221,64,24,test,kijana,boy,boy,TRUE,2140
60499,3,vocab3,208,835.826,59,6,test,baba,father,father,TRUE,1006
60499,3,vocab3,209,841.577,56,12,test,maslahi,interest,interest,TRUE,4251
60499,3,vocab3,210,843.983,52,11,test,ajabu,wonder,wonder,TRUE,796
60499,3,vocab3,211,846.837,56,13,test,maslahi,interest,interest,TRUE,1409
60499,3,vocab3,212,849.629,71,7,test,jioni,evening,evening,TRUE,1090
60499,3,vocab3,213,853.079,56,14,test,maslahi,interest,interest,TRUE,1617
60499,3,vocab3,214,855.245,64,25,test,kijana,boy,boy,TRUE,901
60499,3,vocab3,215,858.964,56,15,test,maslahi,interest,interest,TRUE,519
60499,3,vocab3,216,862.081,75,6,test,ufu,death,death,TRUE,1149
60499,3,vocab3,217,865.009,56,16,test,maslahi,interest,interest,TRUE,1228
60499,3,vocab3,218,867.46,73,6,test,saduku,box,box,TRUE,937
60499,3,vocab3,219,870.22,56,17,test,maslahi,interest,interest,TRUE,1009
60499,3,vocab3,220,874.381,53,13,test,tumaini,hope,hope,TRUE,1083
60499,3,vocab3,221,876.686,56,18,test,maslahi,interest,interest,TRUE,788
60499,3,vocab3,222,878.846,69,9,test,kitanda,bed,bed,TRUE,1176
60499,3,vocab3,223,881.916,72,11,test,maji,ice,ice,TRUE,2035
60499,3,vocab3,224,884.548,70,12,test,elimu,science,science,TRUE,1315
60499,3,vocab3,225,888.225,58,6,test,kioo,mirror,mirror,TRUE,2023
60499,3,vocab3,226,890.747,56,19,test,maslahi,interest,interest,TRUE,989
60499,3,vocab3,227,893.712,52,12,test,ajabu,wonder,wonder,TRUE,1459
60499,3,vocab3,228,896.065,60,6,test,kofia,hat,hat,TRUE,1146
60499,3,vocab3,229,898.46,65,12,test,chakula,food,food,TRUE,1057
60499,3,vocab3,230,900.796,66,9,test,wakati,alarm,alarm,TRUE,1039
60499,3,vocab3,231,904.715,62,12,test,kamba,rope,rope,TRUE,1382
60499,3,vocab3,232,908.304,64,26,test,kijana,boy,boy,TRUE,2165
60499,3,vocab3,233,910.71,55,13,test,bahari,sea,sea,TRUE,1268
60499,3,vocab3,234,913.508,64,27,test,kijana,boy,boy,TRUE,1450
60499,3,vocab3,235,915.986,52,13,test,ajabu,wonder,wonder,TRUE,1075
60499,3,vocab3,236,918.862,64,28,test,kijana,boy,boy,TRUE,966
60499,3,vocab3,237,922.261,56,20,test,maslahi,interest,interest,TRUE,1840
60499,3,vocab3,238,924.345,64,29,test,kijana,boy,boy,TRUE,748
60499,3,vocab3,239,926.728,56,21,test,maslahi,interest,interest,TRUE,712
60499,3,vocab3,240,930.592,71,8,test,jioni,evening,evening,TRUE,1381
60499,3,vocab3,241,932.925,70,13,test,elimu,science,science,TRUE,1010
60499,3,vocab3,242,935.705,53,14,test,tumaini,hope,hope,TRUE,945
60499,3,vocab3,243,937.854,64,30,test,kijana,boy,boy,TRUE,900
60499,3,vocab3,244,940.099,72,12,test,maji,ice,ice,TRUE,1193
60499,3,vocab3,245,943.517,69,10,test,kitanda,bed,bed,TRUE,1002
60499,3,vocab3,246,946.412,74,7,test,farasi,horse,horse,TRUE,1210
60499,3,vocab3,247,948.589,64,31,test,kijana,boy,boy,TRUE,996
60499,3,vocab3,248,951.721,68,7,test,kiti,chair,chair,TRUE,1293
60499,3,vocab3,249,958.583,56,22,test,maslahi,interest,interest,TRUE,4419
60499,3,vocab3,250,961.057,55,14,test,bahari,sea,sea,TRUE,1311
60499,3,vocab3,251,963.986,56,23,test,maslahi,interest,interest,TRUE,1140
60499,3,vocab3,252,968.423,62,13,test,kamba,rope,rope,TRUE,1249
60499,3,vocab3,253,971.25,56,24,test,maslahi,interest,interest,TRUE,1187
60499,3,vocab3,254,974.184,52,14,test,ajabu,wonder,wonder,TRUE,1382
60499,3,vocab3,255,976.881,56,25,test,maslahi,interest,interest,TRUE,1212
60499,3,vocab3,256,980.552,55,15,test,bahari,sea,sea,TRUE,2505
60499,3,vocab3,257,983.978,56,26,test,maslahi,interest,interest,TRUE,1282
60499,3,vocab3,258,988.444,51,7,test,kanisa,church,church,TRUE,1112
60499,3,vocab3,259,990.788,56,27,test,maslahi,interest,interest,TRUE,942
60499,3,vocab3,260,994.133,64,32,test,kijana,boy,boy,TRUE,1914
60499,3,vocab3,261,996.879,56,28,test,maslahi,interest,interest,TRUE,556
60499,3,vocab3,262,999.122,68,8,test,kiti,chair,chair,TRUE,934
60499,3,vocab3,263,1001.655,52,15,test,ajabu,wonder,wonder,TRUE,1049
60499,3,vocab3,264,1004.289,56,29,test,maslahi,interest,interest,TRUE,873
60499,3,vocab3,265,1006.837,72,13,test,maji,ice,ice,TRUE,1318
60499,3,vocab3,266,1009.627,64,33,test,kijana,boy,boy,TRUE,1129
60499,3,vocab3,267,1012.632,71,9,test,jioni,evening,evening,TRUE,1071
60499,3,vocab3,268,1016.01,58,7,test,kioo,mirror,mirror,TRUE,979
60499,3,vocab3,269,1018.486,72,14,test,maji,ice,ice,TRUE,1122
60499,3,vocab3,270,1020.903,55,16,test,bahari,sea,sea,TRUE,1324
60499,3,vocab3,271,1023.744,54,7,test,degaga,glasses,glasses,TRUE,1050
60499,3,vocab3,272,1026.127,64,34,test,kijana,boy,boy,TRUE,908
60499,3,vocab3,273,1029.239,69,11,test,kitanda,bed,bed,TRUE,1272
60499,3,vocab3,274,1031.303,62,14,test,kamba,rope,rope,TRUE,1011
60499,3,vocab3,275,1034.069,56,30,test,maslahi,interest,interest,TRUE,1007
60499,3,vocab3,276,1036.788,55,17,test,bahari,sea,sea,TRUE,1441
60499,3,vocab3,277,1038.996,74,8,test,farasi,horse,horse,TRUE,1078
60499,3,vocab3,278,1042.262,64,35,test,kijana,boy,boy,TRUE,2080
60499,3,vocab3,279,1045.367,72,15,test,maji,ice,ice,TRUE,1916
60499,3,vocab3,280,1047.668,55,18,test,bahari,sea,sea,TRUE,987
60499,3,vocab3,281,1050.003,57,7,test,basi,bus,bus,TRUE,1121
60499,3,vocab3,282,1052.221,64,36,test,kijana,boy,boy,TRUE,869
60499,3,vocab3,283,1055.33,52,16,test,ajabu,wonder,wonder,TRUE,984
60499,3,vocab3,284,1059.174,56,31,test,maslahi,interest,interest,TRUE,1266
60499,3,vocab3,285,1063.79,53,15,test,tumaini,hope,hope,TRUE,3453
60499,3,vocab3,286,1066.625,55,19,test,bahari,sea,sea,TRUE,931
60499,3,vocab3,287,1069.026,64,37,test,kijana,boy,boy,TRUE,953
60499,3,vocab3,288,1071.328,65,13,test,chakula,food,food,TRUE,1031
60499,3,vocab3,289,1073.349,72,16,test,maji,ice,ice,TRUE,800
60499,3,vocab3,290,1076.632,56,32,test,maslahi,interest,interest,TRUE,1697
60499,3,vocab3,291,1079.073,63,7,test,dhoruba,storm,storm,TRUE,968
60499,3,vocab3,292,1081.147,69,12,test,kitanda,bed,bed,TRUE,1040
60499,3,vocab3,293,1084.446,55,20,test,bahari,sea,sea,TRUE,2017
60499,3,vocab3,294,1086.732,62,15,test,kamba,rope,rope,TRUE,1061
60499,3,vocab3,295,1089.331,56,33,test,maslahi,interest,interest,TRUE,1032
60499,3,vocab3,296,1091.863,70,14,test,elimu,science,science,TRUE,1275
60499,3,vocab3,297,1094.916,52,17,test,ajabu,wonder,wonder,TRUE,1026
60499,3,vocab3,298,1097.881,70,15,test,elimu,science,science,TRUE,1523
60499,3,vocab3,299,1101.119,55,21,test,bahari,sea,sea,TRUE,989
60499,3,vocab3,300,1103.438,70,16,test,elimu,science,science,TRUE,950
60499,3,vocab3,301,1108.321,56,34,test,maslahi,interest,interest,TRUE,2874
60499,3,vocab3,302,1111.398,72,17,test,maji,ice,ice,TRUE,1247
60499,3,vocab3,303,1114.135,56,35,test,maslahi,interest,interest,TRUE,953
60499,3,vocab3,304,1116.479,74,9,test,farasi,horse,horse,TRUE,1146
60499,3,vocab3,305,1119.904,56,36,test,maslahi,interest,interest,TRUE,762
60499,3,vocab3,306,1122.407,53,16,test,tumaini,hope,hope,TRUE,1236
60499,3,vocab3,307,1125.515,64,38,test,kijana,boy,boy,TRUE,1852
60499,3,vocab3,308,1129.973,51,8,test,kanisa,church,church,TRUE,934
60499,3,vocab3,309,1132.904,70,17,test,elimu,science,science,TRUE,1319
60499,3,vocab3,310,1135.758,67,7,test,tofaa,apple,apple,TRUE,1003
60499,3,vocab3,311,1140.296,72,18,test,maji,ice,ice,TRUE,2507
60499,3,vocab3,312,1143.368,62,16,test,kamba,rope,rope,TRUE,954
60499,3,vocab3,313,1145.4,72,19,test,maji,ice,ice,TRUE,906
60499,3,vocab3,314,1148.556,56,37,test,maslahi,interest,interest,TRUE,1378
60499,3,vocab3,315,1151.185,55,22,test,bahari,sea,sea,TRUE,1315
60499,3,vocab3,316,1154.121,64,39,test,kijana,boy,boy,TRUE,1439
60499,3,vocab3,317,1156.374,69,13,test,kitanda,bed,bed,TRUE,972
60499,3,vocab3,318,1163.147,64,40,test,kijana,boy,boy,TRUE,1632
60499,3,vocab3,319,1165.589,72,20,test,maji,ice,ice,TRUE,1107
60499,3,vocab3,320,1168.062,64,41,test,kijana,boy,boy,TRUE,959
60499,3,vocab3,321,1175.919,56,38,test,maslahi,interest,interest,TRUE,5120
60499,3,vocab3,322,1178.052,64,42,test,kijana,boy,boy,TRUE,843
60499,3,vocab3,323,1180.481,56,39,test,maslahi,interest,interest,TRUE,1007
60499,3,vocab3,324,1182.594,64,43,test,kijana,boy,boy,TRUE,785
60499,3,vocab3,325,1185.595,70,18,test,elimu,science,science,TRUE,1398
60499,3,vocab3,326,1190.014,52,18,test,ajabu,wonder,wonder,TRUE,974
60499,3,vocab3,327,1193.744,70,19,test,elimu,science,science,TRUE,966
60499,3,vocab3,328,1196.477,72,21,test,maji,ice,ice,TRUE,1714
60499,3,vocab3,329,1198.706,70,20,test,elimu,science,science,TRUE,941
60499,3,vocab3,330,1201.444,55,23,test,bahari,sea,sea,TRUE,1590
64096,1,vocab1,1,9.609,24,1,study,duka,shop,shop,TRUE,6229
64096,1,vocab1,2,13.676,24,2,test,duka,shop,shop,TRUE,1638
64096,1,vocab1,3,21.694,9,1,study,askari,police,police,TRUE,2833
64096,1,vocab1,4,25.766,9,2,test,askari,police,police,TRUE,1538
64096,1,vocab1,5,33.179,7,1,study,jicho,eye,eye,TRUE,3294
64096,1,vocab1,6,39.373,16,1,study,kazi,work,work,TRUE,3262
64096,1,vocab1,7,43.391,7,2,test,jicho,eye,eye,TRUE,1213
64096,1,vocab1,8,51.802,16,2,test,kazi,work,shop,FALSE,6613
64096,1,vocab1,9,63.436,19,1,study,duara,wheel,wheel,TRUE,5343
64096,1,vocab1,10,67.516,24,3,test,duka,shop,work,FALSE,1900
64096,1,vocab1,11,75.273,19,2,test,duara,wheel,work,FALSE,2713
64096,1,vocab1,12,85.245,9,3,test,askari,police,police,TRUE,4651
64096,1,vocab1,13,92.277,23,1,study,maumiva,pain,pain,TRUE,3500
64096,1,vocab1,14,95.278,7,3,test,jicho,eye,eye,TRUE,1129
64096,1,vocab1,15,99.604,23,2,test,maumiva,pain,pain,TRUE,2728
64096,1,vocab1,16,107.731,16,3,test,kazi,work,work,TRUE,2084
64096,1,vocab1,17,115.185,24,4,test,duka,shop,wheel,FALSE,5436
64096,1,vocab1,18,123.609,9,4,test,askari,police,police,TRUE,1608
64096,1,vocab1,19,126.667,19,3,test,duara,wheel,wheel,TRUE,1365
64096,1,vocab1,20,131.024,3,1,study,samaki,fish,fish,TRUE,2576
64096,1,vocab1,21,137.716,21,1,study,rangi,color,color,TRUE,2171
64096,1,vocab1,22,140.656,3,2,test,samaki,fish,fish,TRUE,1408
64096,1,vocab1,23,144.029,21,2,test,rangi,color,color,TRUE,1287
64096,1,vocab1,24,149.381,24,5,test,duka,shop,work,FALSE,3752
64096,1,vocab1,25,158.759,23,3,test,maumiva,pain,pain,TRUE,3864
64096,1,vocab1,26,163.508,22,1,study,tunda,fruit,fruit,TRUE,1593
64096,1,vocab1,27,166.851,24,6,test,duka,shop,shop,TRUE,1718
64096,1,vocab1,28,182.752,22,2,test,tunda,fruit,?,FALSE,15287
64096,1,vocab1,29,190.165,3,3,test,samaki,fish,fish,TRUE,2251
64096,1,vocab1,30,194.502,21,3,test,rangi,color,color,TRUE,2170
64096,1,vocab1,31,197.279,23,4,test,maumiva,pain,pain,TRUE,1168
64096,1,vocab1,32,200.996,11,1,study,kuku,chicken,chicken,TRUE,1784
64096,1,vocab1,33,209.028,17,1,study,likizo,holidays,holidays,TRUE,4042
64096,1,vocab1,34,211.842,11,2,test,kuku,chicken,chicken,TRUE,1221
64096,1,vocab1,35,215.596,17,2,test,likizo,holidays,holidays,TRUE,1105
64096,1,vocab1,36,219.179,22,3,test,tunda,fruit,fruit,TRUE,1279
64096,1,vocab1,37,225.905,4,1,study,kaputula,pants,pants,TRUE,4329
64096,1,vocab1,38,229.175,13,1,study,wimbo,song,song,TRUE,1132
64096,1,vocab1,39,235.375,4,2,test,kaputula,pants,song,FALSE,2235
64096,1,vocab1,40,241.493,13,2,test,wimbo,song,song,TRUE,1293
64096,1,vocab1,41,246.386,24,7,test,duka,shop,shop,TRUE,1471
64096,1,vocab1,42,251.871,6,1,study,tumbili,monkey,monkey,TRUE,2114
64096,1,vocab1,43,256.038,14,1,study,sauti,voice,voice,TRUE,1744
64096,1,vocab1,44,259.302,6,2,test,tumbili,monkey,monkey,TRUE,1048
64096,1,vocab1,45,262.388,14,2,test,sauti,voice,voice,TRUE,1244
64096,1,vocab1,46,265.337,11,3,test,kuku,chicken,chicken,TRUE,1044
64096,1,vocab1,47,271.005,17,3,test,likizo,holidays,holidays,TRUE,2852
64096,1,vocab1,48,275.98,12,1,study,fasihi,book,book,TRUE,3168
64096,1,vocab1,49,280.351,10,1,study,wingu,cloud,cloud,TRUE,1944
64096,1,vocab1,50,285.821,12,2,test,fasihi,book,fasihi,FALSE,1558
64096,1,vocab1,51,296.673,10,2,test,wingu,cloud,voice,FALSE,6028
64096,1,vocab1,52,304.839,4,3,test,kaputula,pants, ,FALSE,3860
64096,1,vocab1,53,317.031,13,3,test,wimbo,song,song,TRUE,6618
64096,1,vocab1,54,321.729,23,5,test,maumiva,pain,pain,TRUE,2781
64096,1,vocab1,55,325.349,6,3,test,tumbili,monkey,monkey,TRUE,1273
64096,1,vocab1,56,329.156,14,3,test,sauti,voice,fruit,FALSE,1999
64096,1,vocab1,57,338.388,17,4,test,likizo,holidays,holidays,TRUE,2449
64096,1,vocab1,58,344.935,24,8,test,duka,shop,shop,TRUE,4097
64096,1,vocab1,59,356.845,12,3,test,fasihi,book,voice,FALSE,10278
64096,1,vocab1,60,364.186,4,4,test,kaputula,pants,pants,TRUE,2210
64096,1,vocab1,61,368.952,10,3,test,wingu,cloud,cloud,TRUE,2635
64096,1,vocab1,62,372.876,13,4,test,wimbo,song,song,TRUE,2549
64096,1,vocab1,63,375.709,24,9,test,duka,shop,shop,TRUE,1037
64096,1,vocab1,64,384.325,14,4,test,sauti,voice,voice,TRUE,6803
64096,1,vocab1,65,387.657,9,5,test,askari,police,police,TRUE,1459
64096,1,vocab1,66,392.103,12,4,test,fasihi,book,book,TRUE,2743
64096,1,vocab1,67,396.82,3,4,test,samaki,fish,fruit,FALSE,2922
64096,1,vocab1,68,403.429,21,4,test,rangi,color, ,FALSE,2447
64096,1,vocab1,69,434.334,14,5,test,sauti,voice,color,FALSE,25361
64096,1,vocab1,70,444.144,12,5,test,fasihi,book,book,TRUE,4699
64096,1,vocab1,71,447.079,14,6,test,sauti,voice,voice,TRUE,1569
64096,1,vocab1,72,449.602,23,6,test,maumiva,pain,pain,TRUE,1093
64096,1,vocab1,73,452.605,16,4,test,kazi,work, ,FALSE,1745
64096,1,vocab1,74,459.402,4,5,test,kaputula,pants,pants,TRUE,1670
64096,1,vocab1,75,465.301,7,4,test,jicho,eye,eye,TRUE,2938
64096,1,vocab1,76,473.918,17,5,test,likizo,holidays,holidays,TRUE,5734
64096,1,vocab1,77,482.189,3,5,test,samaki,fish,fruit,FALSE,6529
64096,1,vocab1,78,490.74,13,5,test,wimbo,song,cloud,FALSE,2907
64096,1,vocab1,79,497.434,21,5,test,rangi,color,color,TRUE,1471
64096,1,vocab1,80,500.738,12,6,test,fasihi,book,book,TRUE,1825
64096,1,vocab1,81,505.573,10,4,test,wingu,cloud,cloud,TRUE,3104
64096,1,vocab1,82,508.813,19,4,test,duara,wheel,wheel,TRUE,1574
64096,1,vocab1,83,512.816,24,10,test,duka,shop,shop,TRUE,1145
64096,1,vocab1,84,519.317,20,1,study,baskeli,bike,bike,TRUE,4932
64096,1,vocab1,85,522.925,13,6,test,wimbo,song,song,TRUE,2157
64096,1,vocab1,86,532.949,20,2,test,baskeli,bike,bicycle,FALSE,1539
64096,1,vocab1,87,540.984,16,5,test,kazi,work,work,TRUE,2053
64096,1,vocab1,88,545.416,22,4,test,tunda,fruit,smell,FALSE,3106
64096,1,vocab1,89,553.189,14,7,test,sauti,voice,color,FALSE,2478
64096,1,vocab1,90,559.234,3,6,test,samaki,fish,fish,TRUE,1263
64096,1,vocab1,91,566.731,15,1,study,shukuru,thanks,thanks,TRUE,2656
64096,1,vocab1,92,573.508,1,1,study,adui,enemy,enemy,TRUE,3796
64096,1,vocab1,93,576.828,15,2,test,shukuru,thanks,thanks,TRUE,1279
64096,1,vocab1,94,581.212,1,2,test,adui,enemy,enemy,TRUE,1125
64096,1,vocab1,95,587.136,14,8,test,sauti,voice,voice,TRUE,3358
64096,1,vocab1,96,590.08,20,3,test,baskeli,bike,bike,TRUE,1638
64096,1,vocab1,97,597.457,12,7,test,fasihi,book,book,TRUE,5839
64096,1,vocab1,98,601.031,10,5,test,wingu,cloud,cloud,TRUE,1785
64096,1,vocab1,99,605.627,23,7,test,maumiva,pain,pain,TRUE,1058
64096,1,vocab1,100,628.469,14,9,test,sauti,voice,voice,TRUE,21523
64096,1,vocab1,101,636.92,17,6,test,likizo,holidays,holidays,TRUE,1419
64096,1,vocab1,102,640.168,14,10,test,sauti,voice,voice,TRUE,1914
64096,1,vocab1,103,644.912,13,7,test,wimbo,song,song,TRUE,3660
64096,1,vocab1,104,650.581,1,3,test,adui,enemy,enemy,TRUE,2006
64096,1,vocab1,105,653.545,15,3,test,shukuru,thanks,thanks,TRUE,1397
64096,1,vocab1,106,656.119,11,4,test,kuku,chicken,chicken,TRUE,1045
64096,1,vocab1,107,687.554,22,5,test,tunda,fruit,cloud,FALSE,29870
64096,1,vocab1,108,697.267,6,4,test,tumbili,monkey, ,FALSE,5497
64096,1,vocab1,109,704.17,14,11,test,sauti,voice,voice,TRUE,2074
64096,1,vocab1,110,706.742,12,8,test,fasihi,book,book,TRUE,1316
64096,1,vocab1,111,709.218,3,7,test,samaki,fish,fish,TRUE,1291
64096,1,vocab1,112,711.687,7,5,test,jicho,eye,eye,TRUE,1208
64096,1,vocab1,113,717.638,5,1,study,afisi,office,office,TRUE,2745
64096,1,vocab1,114,720.571,13,8,test,wimbo,song,song,TRUE,1868
64096,1,vocab1,115,723.257,5,2,test,afisi,office,office,TRUE,1207
64096,1,vocab1,116,727.237,8,1,study,flava,music,music,TRUE,2175
64096,1,vocab1,117,738.67,25,1,study,lugha,language,language,TRUE,1763
64096,1,vocab1,118,741.37,8,2,test,flava,music,music,TRUE,1055
64096,1,vocab1,119,745.207,25,2,test,lugha,language,language,TRUE,1303
64096,1,vocab1,120,749.875,18,1,study,rafiki,friend,friend,TRUE,2415
64096,1,vocab1,121,758.821,14,12,test,sauti,voice,voice,TRUE,7805
64096,1,vocab1,122,761.378,18,2,test,rafiki,friend,friend,TRUE,1037
64096,1,vocab1,123,764.012,4,6,test,kaputula,pants,pants,TRUE,1359
64096,1,vocab1,124,768.338,16,6,test,kazi,work,work,TRUE,3064
64096,1,vocab1,125,774.335,5,3,test,afisi,office,office,TRUE,4660
64096,1,vocab1,126,777.68,14,13,test,sauti,voice,voice,TRUE,1921
64096,1,vocab1,127,781.677,22,6,test,tunda,fruit,fruit,TRUE,2586
64096,1,vocab1,128,785.878,6,5,test,tumbili,monkey,monkey,TRUE,1843
64096,1,vocab1,129,790.833,2,1,study,pombe,beer,beer,TRUE,2771
64096,1,vocab1,130,794.423,8,3,test,flava,music,music,TRUE,989
64096,1,vocab1,131,797.09,2,2,test,pombe,beer,beer,TRUE,1227
64096,1,vocab1,132,800.738,25,3,test,lugha,language,language,TRUE,1102
64096,1,vocab1,133,803.473,18,3,test,rafiki,friend,friend,TRUE,940
64096,1,vocab1,134,806.239,5,4,test,afisi,office,office,TRUE,1302
64096,1,vocab1,135,813.562,17,7,test,likizo,holidays,holidays,TRUE,3441
64096,1,vocab1,136,818.631,10,6,test,wingu,cloud,cloud,TRUE,3415
64096,1,vocab1,137,824.584,12,9,test,fasihi,book,book,TRUE,4642
64096,1,vocab1,138,827.134,20,4,test,baskeli,bike,bike,TRUE,1326
64096,1,vocab1,139,829.409,2,3,test,pombe,beer,beer,TRUE,1005
64096,1,vocab1,140,838.84,24,11,test,duka,shop,shop,TRUE,5832
64096,1,vocab1,141,841.275,12,10,test,fasihi,book,book,TRUE,1013
64096,1,vocab1,142,844.067,13,9,test,wimbo,song,song,TRUE,1739
64096,1,vocab1,143,854.128,1,4,test,adui,enemy,enemy,TRUE,7855
64096,1,vocab1,144,862.125,14,14,test,sauti,voice,fish,FALSE,2035
64096,1,vocab1,145,867.832,16,7,test,kazi,work,work,TRUE,1138
64096,1,vocab1,146,872.469,21,6,test,rangi,color,color,TRUE,1733
64096,1,vocab1,147,875.38,15,4,test,shukuru,thanks,thanks,TRUE,1122
64096,1,vocab1,148,897.812,22,7,test,tunda,fruit,?,FALSE,21825
64096,1,vocab1,149,904.597,10,7,test,wingu,cloud,cloud,TRUE,1751
64096,1,vocab1,150,911.947,17,8,test,likizo,holidays,holidays,TRUE,1982
64096,1,vocab1,151,915.073,14,15,test,sauti,voice,voice,TRUE,1927
64096,1,vocab1,152,917.912,9,6,test,askari,police,police,TRUE,1326
64096,1,vocab1,153,922.138,23,8,test,maumiva,pain,pain,TRUE,2958
64096,1,vocab1,154,925.041,5,5,test,afisi,office,office,TRUE,1491
64096,1,vocab1,155,927.499,4,7,test,kaputula,pants,pants,TRUE,1208
64096,1,vocab1,156,932.758,24,12,test,duka,shop,shop,TRUE,4015
64096,1,vocab1,157,935.668,13,10,test,wimbo,song,song,TRUE,1883
64096,1,vocab1,158,938.194,8,4,test,flava,music,music,TRUE,932
64096,1,vocab1,159,942.879,25,4,test,lugha,language,language,TRUE,965
64096,1,vocab1,160,946.606,24,13,test,duka,shop,shop,TRUE,1197
64096,1,vocab1,161,949.371,18,4,test,rafiki,friend,friend,TRUE,930
64096,1,vocab1,162,953.128,14,16,test,sauti,voice,voice,TRUE,1864
64096,1,vocab1,163,957.156,2,4,test,pombe,beer,beer,TRUE,2009
64096,1,vocab1,164,960.597,12,11,test,fasihi,book,book,TRUE,2081
64096,1,vocab1,165,966.186,3,8,test,samaki,fish,fish,TRUE,2304
64096,1,vocab1,166,968.855,16,8,test,kazi,work,work,TRUE,1299
64096,1,vocab1,167,972.228,22,8,test,tunda,fruit,fruit,TRUE,1712
64096,1,vocab1,168,975.548,24,14,test,duka,shop,shop,TRUE,1257
64096,1,vocab1,169,980.132,1,5,test,adui,enemy,enemy,TRUE,1629
64096,1,vocab1,170,982.876,14,17,test,sauti,voice,voice,TRUE,1515
64096,1,vocab1,171,988.263,17,9,test,likizo,holidays,holidays,TRUE,1562
64096,1,vocab1,172,991.066,19,5,test,duara,wheel,wheel,TRUE,1430
64096,1,vocab1,173,994.204,6,6,test,tumbili,monkey,monkey,TRUE,1274
64096,1,vocab1,174,1037.882,3,9,test,samaki,fish,?,FALSE,43061
64096,1,vocab1,175,1044.477,12,12,test,fasihi,book,book,TRUE,1580
64096,1,vocab1,176,1050.539,24,15,test,duka,shop,shop,TRUE,1633
64096,1,vocab1,177,1056.425,14,18,test,sauti,voice,voice,TRUE,4311
64096,1,vocab1,178,1059.707,23,9,test,maumiva,pain,pain,TRUE,995
64096,1,vocab1,179,1064.068,22,9,test,tunda,fruit,fruit,TRUE,2841
64096,1,vocab1,180,1068.048,13,11,test,wimbo,song,song,TRUE,2227
64096,1,vocab1,181,1070.84,16,9,test,kazi,work,work,TRUE,1463
64096,1,vocab1,182,1075.986,10,8,test,wingu,cloud,cloud,TRUE,1924
64096,1,vocab1,183,1080.011,22,10,test,tunda,fruit,fruit,TRUE,2423
64096,1,vocab1,184,1083.759,24,16,test,duka,shop,shop,TRUE,1962
64096,1,vocab1,185,1090.13,3,10,test,samaki,fish,fish,TRUE,1325
64096,1,vocab1,186,1119.448,14,19,test,sauti,voice,voice,TRUE,28008
64096,1,vocab1,187,1122.757,22,11,test,tunda,fruit,fruit,TRUE,1611
64096,1,vocab1,188,1126.925,11,5,test,kuku,chicken,chicken,TRUE,2577
64096,1,vocab1,189,1129.899,7,6,test,jicho,eye,eye,TRUE,1062
64096,1,vocab1,190,1137.664,17,10,test,likizo,holidays,holidays,TRUE,1778
64096,1,vocab1,191,1140.767,24,17,test,duka,shop,shop,TRUE,1098
64096,1,vocab1,192,1143.18,14,20,test,sauti,voice,voice,TRUE,1135
64096,1,vocab1,193,1147.919,22,12,test,tunda,fruit,fruit,TRUE,2523
64096,1,vocab1,194,1153.438,5,6,test,afisi,office,office,TRUE,3833
64096,1,vocab1,195,1156.46,13,12,test,wimbo,song,song,TRUE,1335
64096,1,vocab1,196,1160.725,10,9,test,wingu,cloud,cloud,TRUE,2031
64096,1,vocab1,197,1163.611,20,5,test,baskeli,bike,bike,TRUE,1286
64096,1,vocab1,198,1167.383,22,13,test,tunda,fruit,fruit,TRUE,1947
64096,1,vocab1,199,1170.251,14,21,test,sauti,voice,voice,TRUE,1223
64096,1,vocab1,200,1175.825,1,6,test,adui,enemy,enemy,TRUE,1243
64096,1,vocab1,201,1178.831,15,5,test,shukuru,thanks,thanks,TRUE,1164
64096,1,vocab1,202,1181.862,2,5,test,pombe,beer,beer,TRUE,1031
64096,1,vocab1,203,1185.042,22,14,test,tunda,fruit,fruit,TRUE,1467
64096,1,vocab1,204,1191.184,12,13,test,fasihi,book,book,TRUE,4376
64096,1,vocab1,205,1195.203,18,5,test,rafiki,friend,friend,TRUE,1063
64096,1,vocab1,206,1199.365,12,14,test,fasihi,book,book,TRUE,1216
64096,1,vocab1,207,1202.128,4,8,test,kaputula,pants,pants,TRUE,982
64096,2,vocab2,1,5.275,49,1,study,siri,secret,secret,TRUE,2826
64096,2,vocab2,2,12.319,49,2,test,siri,secret,secret,TRUE,1025
64096,2,vocab2,3,18.193,34,1,study,bibi,grandmother,grandmother,TRUE,2528
64096,2,vocab2,4,22.071,34,2,test,bibi,grandmother,grandmother,TRUE,1170
64096,2,vocab2,5,27.833,32,1,study,karamu,party,party,TRUE,2582
64096,2,vocab2,6,32.632,41,1,study,keja,house,house,TRUE,1344
64096,2,vocab2,7,35.824,32,2,test,karamu,party,party,TRUE,975
64096,2,vocab2,8,42.196,41,2,test,keja,house,?,FALSE,5768
64096,2,vocab2,9,51.012,44,1,study,roho,soul,soul,TRUE,2390
64096,2,vocab2,10,55.642,49,3,test,siri,secret,secrete,FALSE,1644
64096,2,vocab2,11,61.643,44,2,test,roho,soul,soul,TRUE,1252
64096,2,vocab2,12,65.279,34,3,test,bibi,grandmother,grandmother,TRUE,1010
64096,2,vocab2,13,69.217,48,1,study,bustani,garden,garden,TRUE,1956
64096,2,vocab2,14,75.115,28,1,study,ujuzi,knowledge,knowledge,TRUE,3072
64096,2,vocab2,15,79.409,48,2,test,bustani,garden,garden,TRUE,1823
64096,2,vocab2,16,82.742,28,2,test,ujuzi,knowledge,?,FALSE,2729
64096,2,vocab2,17,94.962,32,3,test,karamu,party,party,TRUE,6263
64096,2,vocab2,18,104.079,41,3,test,keja,house,house,TRUE,7594
64096,2,vocab2,19,107.944,49,4,test,siri,secret,secret,TRUE,1758
64096,2,vocab2,20,112.034,46,1,study,kichwa,head,head,TRUE,2250
64096,2,vocab2,21,114.636,44,3,test,roho,soul,soul,TRUE,1091
64096,2,vocab2,22,122.189,46,2,test,kichwa,head,head,TRUE,6272
64096,2,vocab2,23,128.108,47,1,study,maziwa,milk,milk,TRUE,1792
64096,2,vocab2,24,131.573,48,3,test,bustani,garden,garden,TRUE,1586
64096,2,vocab2,25,135.474,47,2,test,maziwa,milk,milk,TRUE,1390
64096,2,vocab2,26,142.36,32,4,test,karamu,party,party,TRUE,4097
64096,2,vocab2,27,146.952,28,3,test,ujuzi,knowledge,knowledge,TRUE,1845
64096,2,vocab2,28,149.716,41,4,test,keja,house,house,TRUE,1296
64096,2,vocab2,29,152.712,36,1,study,chunga,pot,pot,TRUE,1819
64096,2,vocab2,30,157.202,42,1,study,maliki,king,king,TRUE,2303
64096,2,vocab2,31,160.835,36,2,test,chunga,pot,milk,FALSE,2047
64096,2,vocab2,32,167.094,42,2,test,maliki,king,king,TRUE,1589
64096,2,vocab2,33,172.459,46,3,test,kichwa,head,milk,FALSE,3897
64096,2,vocab2,34,180.656,32,5,test,karamu,party,party,TRUE,2780
64096,2,vocab2,35,187.957,47,3,test,maziwa,milk,?,FALSE,6698
64096,2,vocab2,36,197.238,29,1,study,mbwa,dog,dog,TRUE,4369
64096,2,vocab2,37,201.057,38,1,study,chapati,bread,bread,TRUE,1612
64096,2,vocab2,38,203.317,29,2,test,mbwa,dog,dog,TRUE,1095
64096,2,vocab2,39,206.615,38,2,test,chapati,bread,bread,TRUE,1222
64096,2,vocab2,40,210.948,36,3,test,chunga,pot,?,FALSE,3730
64096,2,vocab2,41,218.69,32,6,test,karamu,party,party,TRUE,2023
64096,2,vocab2,42,221.345,46,4,test,kichwa,head,head,TRUE,1426
64096,2,vocab2,43,224.223,42,3,test,maliki,king,king,TRUE,1716
64096,2,vocab2,44,227.027,47,4,test,maziwa,milk,milk,TRUE,1150
64096,2,vocab2,45,231.482,31,1,study,barua,letter,letter,TRUE,2265
64096,2,vocab2,46,242.655,41,5,test,keja,house,?,FALSE,10569
64096,2,vocab2,47,248.972,31,2,test,barua,letter,?,FALSE,2315
64096,2,vocab2,48,255,36,4,test,chunga,pot,pot,TRUE,1425
64096,2,vocab2,49,257.659,38,3,test,chapati,bread,bread,TRUE,1021
64096,2,vocab2,50,260.012,29,3,test,mbwa,dog,dog,TRUE,1226
64096,2,vocab2,51,263.626,39,1,study,dubu,bear,bear,TRUE,1397
64096,2,vocab2,52,268.21,37,1,study,skati,skirt,skirt,TRUE,2213
64096,2,vocab2,53,271.556,39,2,test,dubu,bear,bear,TRUE,1727
64096,2,vocab2,54,274.396,37,2,test,skati,skirt,skirt,TRUE,1456
64096,2,vocab2,55,277.394,41,6,test,keja,house,house,TRUE,1683
64096,2,vocab2,56,281.003,32,7,test,karamu,party,party,TRUE,1152
64096,2,vocab2,57,286.104,35,1,study,tabibu,doctor,doctor,TRUE,2707
64096,2,vocab2,58,290.449,45,1,study,lango,door,door,TRUE,2414
64096,2,vocab2,59,293.7,35,2,test,tabibu,doctor,doctor,TRUE,1177
64096,2,vocab2,60,295.983,45,2,test,lango,door,door,TRUE,1135
64096,2,vocab2,61,300.192,40,1,study,dunia,world,world,TRUE,1851
64096,2,vocab2,62,305.59,31,3,test,barua,letter,?,FALSE,4795
64096,2,vocab2,63,312.177,40,2,test,dunia,world,?,FALSE,2584
64096,2,vocab2,64,320.734,46,5,test,kichwa,head,head,TRUE,4011
64096,2,vocab2,65,326.587,39,3,test,dubu,bear,bear,TRUE,4356
64096,2,vocab2,66,329.116,37,3,test,skati,skirt,skirt,TRUE,1143
64096,2,vocab2,67,336.398,49,5,test,siri,secret,secret,TRUE,5179
64096,2,vocab2,68,340.95,36,5,test,chunga,pot,pot,TRUE,3427
64096,2,vocab2,69,344.029,35,3,test,tabibu,doctor,doctor,TRUE,1176
64096,2,vocab2,70,346.16,45,3,test,lango,door,door,TRUE,958
64096,2,vocab2,71,351.83,31,4,test,barua,letter,letter,TRUE,3850
64096,2,vocab2,72,362.547,46,6,test,kichwa,head,head,TRUE,9447
64096,2,vocab2,73,365.634,41,7,test,keja,house,house,TRUE,1664
64096,2,vocab2,74,368.45,32,8,test,karamu,party,party,TRUE,1076
64096,2,vocab2,75,375.91,40,3,test,dunia,world,?,FALSE,6857
64096,2,vocab2,76,382.324,39,4,test,dubu,bear,bear,TRUE,1659
64096,2,vocab2,77,385.295,36,6,test,chunga,pot,pot,TRUE,1620
64096,2,vocab2,78,389.649,31,5,test,barua,letter,letter,TRUE,1545
64096,2,vocab2,79,395.686,46,7,test,kichwa,head,head,TRUE,4159
64096,2,vocab2,80,402.294,34,4,test,bibi,grandmother,grandmother,TRUE,4048
64096,2,vocab2,81,407.091,49,6,test,siri,secret,secret,TRUE,1427
64096,2,vocab2,82,413.258,26,1,study,chanjo,scissors,scissors,TRUE,2769
64096,2,vocab2,83,422.926,40,4,test,dunia,world,world,TRUE,6809
64096,2,vocab2,84,430.839,26,2,test,chanjo,scissors,scissors,TRUE,1299
64096,2,vocab2,85,435.508,30,1,study,kisu,knife,knife,TRUE,1827
64096,2,vocab2,86,440.13,33,1,study,adhama,honor,honor,TRUE,2586
64096,2,vocab2,87,443.216,30,2,test,kisu,knife,knife,TRUE,1600
64096,2,vocab2,88,446.548,33,2,test,adhama,honor,honour,FALSE,1389
64096,2,vocab2,89,452.654,40,5,test,dunia,world,world,TRUE,1206
64096,2,vocab2,90,470.533,46,8,test,kichwa,head,head,TRUE,15982
64096,2,vocab2,91,474.371,31,6,test,barua,letter,letter,TRUE,2297
64096,2,vocab2,92,476.629,46,9,test,kichwa,head,head,TRUE,1091
64096,2,vocab2,93,480.643,36,7,test,chunga,pot,pot,TRUE,1426
64096,2,vocab2,94,483.981,47,5,test,maziwa,milk,milk,TRUE,1969
64096,2,vocab2,95,488.859,26,3,test,chanjo,scissors,scissors,TRUE,1765
64096,2,vocab2,96,492.612,48,4,test,bustani,garden,?,FALSE,3151
64096,2,vocab2,97,500.611,30,3,test,kisu,knife,?,FALSE,3996
64096,2,vocab2,98,507.285,33,3,test,adhama,honor,honor,TRUE,1450
64096,2,vocab2,99,509.982,44,4,test,roho,soul,soul,TRUE,1368
64096,2,vocab2,100,514.394,34,5,test,bibi,grandmother,grandmother,TRUE,1742
64096,2,vocab2,101,520.499,28,4,test,ujuzi,knowledge,knowledge,TRUE,3220
64096,2,vocab2,102,528.721,46,10,test,kichwa,head,head,TRUE,6067
64096,2,vocab2,103,535.891,40,6,test,dunia,world,world,TRUE,4256
64096,2,vocab2,104,539.127,46,11,test,kichwa,head,head,TRUE,1274
64096,2,vocab2,105,541.568,30,4,test,kisu,knife,knife,TRUE,989
64096,2,vocab2,106,545.529,49,7,test,siri,secret,secrete,FALSE,1505
64096,2,vocab2,107,551.869,40,7,test,dunia,world,world,TRUE,1413
64096,2,vocab2,108,556.078,31,7,test,barua,letter,letter,TRUE,2652
64096,2,vocab2,109,558.677,38,4,test,chapati,bread,bread,TRUE,1065
64096,2,vocab2,110,563.493,42,4,test,maliki,king,?,FALSE,4213
64096,2,vocab2,111,578.642,46,12,test,kichwa,head,head,TRUE,10516
64096,2,vocab2,112,580.891,29,4,test,mbwa,dog,dog,TRUE,1151
64096,2,vocab2,113,584.531,48,5,test,bustani,garden,garden,TRUE,1720
64096,2,vocab2,114,591.544,50,1,study,chama,society,society,TRUE,1266
64096,2,vocab2,115,596.46,43,1,study,jiwe,stone,stone,TRUE,1445
64096,2,vocab2,116,601.017,50,2,test,chama,society,society,TRUE,1429
64096,2,vocab2,117,603.353,43,2,test,jiwe,stone,stone,TRUE,1079
64096,2,vocab2,118,607.784,46,13,test,kichwa,head,head,TRUE,3235
64096,2,vocab2,119,616.075,32,9,test,karamu,party,head,FALSE,6059
64096,2,vocab2,120,625.688,46,14,test,kichwa,head,head,TRUE,4585
64096,2,vocab2,121,629.061,49,8,test,siri,secret,secret,TRUE,1287
64096,2,vocab2,122,633.959,31,8,test,barua,letter,letter,TRUE,3192
64096,2,vocab2,123,641.397,46,15,test,kichwa,head,head,TRUE,5849
64096,2,vocab2,124,646.292,39,5,test,dubu,bear,bear,TRUE,3465
64096,2,vocab2,125,657.71,46,16,test,kichwa,head,head,TRUE,9926
64096,2,vocab2,126,661.018,50,3,test,chama,society,?,FALSE,2703
64096,2,vocab2,127,667.763,46,17,test,kichwa,head,head,TRUE,2045
64096,2,vocab2,128,674.828,43,3,test,jiwe,stone,stone,TRUE,5583
64096,2,vocab2,129,679.318,40,8,test,dunia,world,garden,FALSE,2647
64096,2,vocab2,130,686.907,46,18,test,kichwa,head,head,TRUE,3053
64096,2,vocab2,131,692.054,42,5,test,maliki,king,king,TRUE,1515
64096,2,vocab2,132,694.568,46,19,test,kichwa,head,head,TRUE,1325
64096,2,vocab2,133,698.629,37,4,test,skati,skirt,skirt,TRUE,1771
64096,2,vocab2,134,703.305,46,20,test,kichwa,head,head,TRUE,3525
64096,2,vocab2,135,706.156,40,9,test,dunia,world,world,TRUE,1389
64096,2,vocab2,136,708.915,46,21,test,kichwa,head,head,TRUE,1404
64096,2,vocab2,137,714.866,28,5,test,ujuzi,knowledge,?,FALSE,5349
64096,2,vocab2,138,723.491,50,4,test,chama,society,knife,FALSE,3262
64096,2,vocab2,139,732.043,43,4,test,jiwe,stone,stone,TRUE,3724
64096,2,vocab2,140,736.33,39,6,test,dubu,bear,bear,TRUE,1627
64096,2,vocab2,141,740.206,45,4,test,lango,door,door,TRUE,2691
64096,2,vocab2,142,742.946,46,22,test,kichwa,head,head,TRUE,1588
64096,2,vocab2,143,745.602,41,8,test,keja,house,house,TRUE,1400
64096,2,vocab2,144,748.392,35,4,test,tabibu,doctor,doctor,TRUE,1199
64096,2,vocab2,145,751.212,31,9,test,barua,letter,letter,TRUE,1240
64096,2,vocab2,146,758.675,50,5,test,chama,society,society,TRUE,2725
64096,2,vocab2,147,770.347,43,5,test,jiwe,stone,stone,TRUE,10177
64096,2,vocab2,148,785.959,36,8,test,chunga,pot,stonce,FALSE,14059
64096,2,vocab2,149,794.915,50,6,test,chama,society,society,TRUE,2143
64096,2,vocab2,150,798.38,46,23,test,kichwa,head,head,TRUE,2366
64096,2,vocab2,151,802.519,43,6,test,jiwe,stone,?,FALSE,3536
64096,2,vocab2,152,809.084,30,5,test,kisu,knife,?,FALSE,2563
64096,2,vocab2,153,828.314,32,10,test,karamu,party,shop,FALSE,14166
64096,2,vocab2,154,834.446,33,4,test,adhama,honor,honor,TRUE,1260
64096,2,vocab2,155,837.905,26,4,test,chanjo,scissors,?,FALSE,2856
64096,2,vocab2,156,845.013,32,11,test,karamu,party,party,TRUE,1953
64096,2,vocab2,157,851.679,46,24,test,kichwa,head,head,TRUE,5359
64096,2,vocab2,158,854.535,43,7,test,jiwe,stone,stone,TRUE,1433
64096,2,vocab2,159,859.884,40,10,test,dunia,world,world,TRUE,3376
64096,2,vocab2,160,872.039,30,6,test,kisu,knife,?,FALSE,11552
64096,2,vocab2,161,877.919,46,25,test,kichwa,head,head,TRUE,1309
64096,2,vocab2,162,885.155,50,7,test,chama,society,society,TRUE,2521
64096,2,vocab2,163,888.081,40,11,test,dunia,world,world,TRUE,1459
64096,2,vocab2,164,892.542,27,1,study,anga,sky,sky,TRUE,1273
64096,2,vocab2,165,897.634,28,6,test,ujuzi,knowledge,knowledge,TRUE,2235
64096,2,vocab2,166,900.109,27,2,test,anga,sky,sky,TRUE,1198
64096,2,vocab2,167,902.5,43,8,test,jiwe,stone,stone,TRUE,1106
64096,2,vocab2,168,905.147,46,26,test,kichwa,head,head,TRUE,1449
64096,2,vocab2,169,907.947,32,12,test,karamu,party,party,TRUE,1162
64096,2,vocab2,170,911.942,26,5,test,chanjo,scissors,scissors,TRUE,1501
64096,2,vocab2,171,915.631,30,7,test,kisu,knife,knife,TRUE,1790
64096,2,vocab2,172,923.746,36,9,test,chunga,pot,door,FALSE,6820
64096,2,vocab2,173,935.172,40,12,test,dunia,world,world,TRUE,6697
64096,2,vocab2,174,937.841,27,3,test,anga,sky,sky,TRUE,906
64096,2,vocab2,175,944.408,50,8,test,chama,society,society,TRUE,4255
64096,2,vocab2,176,948.069,36,10,test,chunga,pot,pot,TRUE,2445
64096,2,vocab2,177,950.401,43,9,test,jiwe,stone,stone,TRUE,921
64096,2,vocab2,178,956.927,49,9,test,siri,secret,secret,TRUE,1251
64096,2,vocab2,179,959.575,40,13,test,dunia,world,world,TRUE,1229
64096,2,vocab2,180,962.364,31,10,test,barua,letter,letter,TRUE,1352
64096,2,vocab2,181,964.872,32,13,test,karamu,party,party,TRUE,986
64096,2,vocab2,182,966.973,45,5,test,lango,door,door,TRUE,983
64096,2,vocab2,183,970.255,50,9,test,chama,society,society,TRUE,1165
64096,2,vocab2,184,977.221,36,11,test,chunga,pot,pot,TRUE,5845
64096,2,vocab2,185,979.737,30,8,test,kisu,knife,knife,TRUE,1296
64096,2,vocab2,186,982.09,46,27,test,kichwa,head,head,TRUE,1275
64096,2,vocab2,187,985.335,39,7,test,dubu,bear,bear,TRUE,1870
64096,2,vocab2,188,989.033,34,6,test,bibi,grandmother,grandmother,TRUE,1333
64096,2,vocab2,189,991.532,47,6,test,maziwa,milk,milk,TRUE,1206
64096,2,vocab2,190,994.666,48,6,test,bustani,garden,garden,TRUE,1296
64096,2,vocab2,191,1015.973,41,9,test,keja,house,?,FALSE,19813
64096,2,vocab2,192,1022.377,36,12,test,chunga,pot,pot,TRUE,1871
64096,2,vocab2,193,1026.45,32,14,test,karamu,party,party,TRUE,2578
64096,2,vocab2,194,1031.476,50,10,test,chama,society,society,TRUE,1919
64096,2,vocab2,195,1035.826,28,7,test,ujuzi,knowledge,knowledge,TRUE,1968
64096,2,vocab2,196,1039.475,42,6,test,maliki,king,king,TRUE,2448
64096,2,vocab2,197,1042.866,31,11,test,barua,letter,letter,TRUE,1796
64096,2,vocab2,198,1045.84,30,9,test,kisu,knife,knife,TRUE,1455
64096,2,vocab2,199,1048.632,27,4,test,anga,sky,sky,TRUE,1221
64096,2,vocab2,200,1051.343,40,14,test,dunia,world,world,TRUE,1375
64096,2,vocab2,201,1054.054,43,10,test,jiwe,stone,stone,TRUE,1357
64096,2,vocab2,202,1063.559,36,13,test,chunga,pot,pot,TRUE,8242
64096,2,vocab2,203,1066.763,32,15,test,karamu,party,party,TRUE,1259
64096,2,vocab2,204,1069.434,38,5,test,chapati,bread,bread,TRUE,1014
64096,2,vocab2,205,1072.261,44,5,test,roho,soul,soul,TRUE,1221
64096,2,vocab2,206,1095.149,50,11,test,chama,society,society,TRUE,20952
64096,2,vocab2,207,1098.427,36,14,test,chunga,pot,pot,TRUE,2130
64096,2,vocab2,208,1100.773,46,28,test,kichwa,head,head,TRUE,1236
64096,2,vocab2,209,1102.963,30,10,test,kisu,knife,knife,TRUE,960
64096,2,vocab2,210,1105.027,29,5,test,mbwa,dog,dog,TRUE,1071
64096,2,vocab2,211,1109.184,42,7,test,maliki,king,king,TRUE,1031
64096,2,vocab2,212,1118.362,36,15,test,chunga,pot,pot,TRUE,7994
64096,2,vocab2,213,1122.823,50,12,test,chama,society,society,TRUE,2655
64096,2,vocab2,214,1125.588,36,16,test,chunga,pot,pot,TRUE,1629
64096,2,vocab2,215,1129.008,50,13,test,chama,society,society,TRUE,1144
64096,2,vocab2,216,1131.998,41,10,test,keja,house,house,TRUE,1658
64096,2,vocab2,217,1135.243,37,5,test,skati,skirt,skirt,TRUE,1449
64096,2,vocab2,218,1167.26,26,6,test,chanjo,scissors,scissors,TRUE,29368
64096,2,vocab2,219,1173.596,36,17,test,chunga,pot,pot,TRUE,5211
64096,2,vocab2,220,1176.771,26,7,test,chanjo,scissors,scissors,TRUE,927
64096,2,vocab2,221,1181.975,36,18,test,chunga,pot,pot,TRUE,4071
64096,2,vocab2,222,1184.664,35,5,test,tabibu,doctor,doctor,TRUE,1147
64096,2,vocab2,223,1192.729,36,19,test,chunga,pot,pot,TRUE,6819
64096,2,vocab2,224,1196.846,28,8,test,ujuzi,knowledge,knowledge,TRUE,1649
64096,2,vocab2,225,1199.605,36,20,test,chunga,pot,pot,TRUE,1585
64096,2,vocab2,226,1202.736,31,12,test,barua,letter,letter,TRUE,1244
64096,3,vocab3,1,6.808,74,1,study,farasi,horse,horse,TRUE,5466
64096,3,vocab3,2,9.939,74,2,test,farasi,horse,horse,TRUE,1101
64096,3,vocab3,3,14.891,59,1,study,baba,father,father,TRUE,1975
64096,3,vocab3,4,18.038,59,2,test,baba,father,father,TRUE,1208
64096,3,vocab3,5,21.133,57,1,study,basi,bus,bus,TRUE,1329
64096,3,vocab3,6,25.967,66,1,study,wakati,alarm,alarm,TRUE,1769
64096,3,vocab3,7,28.353,57,2,test,basi,bus,bus,TRUE,1314
64096,3,vocab3,8,31.237,66,2,test,wakati,alarm,alarm,TRUE,971
64096,3,vocab3,9,35.054,69,1,study,kitanda,bed,bed,TRUE,2182
64096,3,vocab3,10,38.334,73,1,study,saduku,box,box,TRUE,1761
64096,3,vocab3,11,41.716,69,2,test,kitanda,bed,?,FALSE,2777
64096,3,vocab3,12,47.958,73,2,test,saduku,box,box,TRUE,1564
64096,3,vocab3,13,53.324,53,1,study,tumaini,hope,hope,TRUE,3327
64096,3,vocab3,14,56.516,74,3,test,farasi,horse,father,FALSE,1811
64096,3,vocab3,15,62.147,53,2,test,tumaini,hope,?,FALSE,1620
64096,3,vocab3,16,68.338,59,3,test,baba,father,father,TRUE,1451
64096,3,vocab3,17,74.653,71,1,study,jioni,evening,evening,TRUE,2709
64096,3,vocab3,18,77.476,57,3,test,basi,bus,?,FALSE,2206
64096,3,vocab3,19,82.873,71,2,test,jioni,evening,?,FALSE,1380
64096,3,vocab3,20,88.281,66,3,test,wakati,alarm,?,FALSE,1391
64096,3,vocab3,21,94.194,69,3,test,kitanda,bed,bed,TRUE,1226
64096,3,vocab3,22,96.646,73,3,test,saduku,box,box,TRUE,1396
64096,3,vocab3,23,101.214,74,4,test,farasi,horse,horse,TRUE,3165
64096,3,vocab3,24,103.873,72,1,study,maji,ice,ice,TRUE,1347
64096,3,vocab3,25,107.432,61,1,study,limau,lemon,lemon,TRUE,2143
64096,3,vocab3,26,111.026,72,2,test,maji,ice,?,FALSE,2982
64096,3,vocab3,27,116.488,61,2,test,limau,lemon,lemon,TRUE,635
64096,3,vocab3,28,119.442,53,3,test,tumaini,hope,?,FALSE,2335
64096,3,vocab3,29,128.082,57,4,test,basi,bus,fatehr,FALSE,3834
64096,3,vocab3,30,134.847,66,4,test,wakati,alarm,alarm,TRUE,1918
64096,3,vocab3,31,138.638,74,5,test,farasi,horse,horse,TRUE,2442
64096,3,vocab3,32,141.122,71,3,test,jioni,evening,ice,FALSE,1479
64096,3,vocab3,33,148.756,67,1,study,tofaa,apple,apple,TRUE,2066
64096,3,vocab3,34,153.536,54,1,study,degaga,glasses,glasses,TRUE,1479
64096,3,vocab3,35,157.231,67,2,test,tofaa,apple,glasses,FALSE,1700
64096,3,vocab3,36,163.764,54,2,test,degaga,glasses,glasses,TRUE,1132
64096,3,vocab3,37,169.561,57,5,test,basi,bus,hope,FALSE,3547
64096,3,vocab3,38,175.662,72,3,test,maji,ice,ice,TRUE,1697
64096,3,vocab3,39,179.158,53,4,test,tumaini,hope,hope,TRUE,2231
64096,3,vocab3,40,181.535,61,3,test,limau,lemon,lemon,TRUE,1029
64096,3,vocab3,41,184.093,57,6,test,basi,bus,bus,TRUE,1057
64096,3,vocab3,42,189.699,71,4,test,jioni,evening,evening,TRUE,2367
64096,3,vocab3,43,194.178,63,1,study,dhoruba,storm,storm,TRUE,2738
64096,3,vocab3,44,199.644,74,6,test,farasi,horse,horse,TRUE,4036
64096,3,vocab3,45,202.133,63,2,test,dhoruba,storm,storm,TRUE,1095
64096,3,vocab3,46,205.387,67,3,test,tofaa,apple,apple,TRUE,1030
64096,3,vocab3,47,212.432,56,1,study,maslahi,interest,interest,TRUE,2930
64096,3,vocab3,48,215.96,54,3,test,degaga,glasses,glass,FALSE,1436
64096,3,vocab3,49,223.839,56,2,test,maslahi,interest,interest,TRUE,1706
64096,3,vocab3,50,230.25,64,1,study,kijana,boy,boy,TRUE,1332
64096,3,vocab3,51,233.484,74,7,test,farasi,horse,horse,TRUE,1848
64096,3,vocab3,52,237.079,64,2,test,kijana,boy,boy,TRUE,1892
64096,3,vocab3,53,239.734,57,7,test,basi,bus,bus,TRUE,1596
64096,3,vocab3,54,242.45,62,1,study,kamba,rope,rope,TRUE,1190
64096,3,vocab3,55,246.067,60,1,study,kofia,hat,hat,TRUE,2641
64096,3,vocab3,56,248.261,62,2,test,kamba,rope,?,FALSE,1587
64096,3,vocab3,57,254.149,60,2,test,kofia,hat,hat,TRUE,1538
64096,3,vocab3,58,257.226,63,3,test,dhoruba,storm,storm,TRUE,1483
64096,3,vocab3,59,259.377,54,4,test,degaga,glasses,?,FALSE,1534
64096,3,vocab3,60,265.711,53,5,test,tumaini,hope,hope,TRUE,1547
64096,3,vocab3,61,271.037,70,1,study,elimu,science,science,TRUE,1449
64096,3,vocab3,62,286.887,56,3,test,maslahi,interest,interest,TRUE,11500
64096,3,vocab3,63,289.454,70,2,test,elimu,science,?,FALSE,1958
64096,3,vocab3,64,297.424,64,3,test,kijana,boy,boy,TRUE,3436
64096,3,vocab3,65,303.813,71,5,test,jioni,evening,?,FALSE,5772
64096,3,vocab3,66,310.491,54,5,test,degaga,glasses,glasses,TRUE,1347
64096,3,vocab3,67,320.105,62,3,test,kamba,rope,?,FALSE,9006
64096,3,vocab3,68,325.943,60,3,test,kofia,hat,hat,TRUE,1510
64096,3,vocab3,69,328.33,74,8,test,farasi,horse,horse,TRUE,1090
64096,3,vocab3,70,330.523,57,8,test,basi,bus,bus,TRUE,1266
64096,3,vocab3,71,338.149,56,4,test,maslahi,interest,?,FALSE,7022
64096,3,vocab3,72,344.835,71,6,test,jioni,evening,evening,TRUE,1667
64096,3,vocab3,73,347.341,64,4,test,kijana,boy,boy,TRUE,1323
64096,3,vocab3,74,355.572,70,3,test,elimu,science,rope,FALSE,4734
64096,3,vocab3,75,365.391,62,4,test,kamba,rope,ropbe,FALSE,5019
64096,3,vocab3,76,385.878,56,5,test,maslahi,interest,evening,FALSE,15355
64096,3,vocab3,77,392.567,54,6,test,degaga,glasses,glasses,TRUE,1193
64096,3,vocab3,78,398.257,62,5,test,kamba,rope,boy,FALSE,4489
64096,3,vocab3,79,405.142,56,6,test,maslahi,interest,interest,TRUE,1721
64096,3,vocab3,80,413.214,70,4,test,elimu,science,?,FALSE,7458
64096,3,vocab3,81,419.103,66,5,test,wakati,alarm,?,FALSE,1882
64096,3,vocab3,82,429.058,62,6,test,kamba,rope,rope,TRUE,5128
64096,3,vocab3,83,431.662,59,4,test,baba,father,father,TRUE,1269
64096,3,vocab3,84,434.621,71,7,test,jioni,evening,evening,TRUE,1418
64096,3,vocab3,85,436.845,69,4,test,kitanda,bed,?,FALSE,1607
64096,3,vocab3,86,449.218,70,5,test,elimu,science,science,TRUE,7229
64096,3,vocab3,87,455.308,73,4,test,saduku,box,?,FALSE,5468
64096,3,vocab3,88,462.503,62,7,test,kamba,rope,rope,TRUE,2498
64096,3,vocab3,89,466.088,56,7,test,maslahi,interest,interest,TRUE,1525
64096,3,vocab3,90,471.422,74,9,test,farasi,horse,horse,TRUE,3677
64096,3,vocab3,91,474.225,66,6,test,wakati,alarm,alarm,TRUE,1342
64096,3,vocab3,92,477.08,70,6,test,elimu,science,science,TRUE,1117
64096,3,vocab3,93,480.307,72,4,test,maji,ice,ice,TRUE,2280
64096,3,vocab3,94,483.904,65,1,study,chakula,food,food,TRUE,2092
64096,3,vocab3,95,487.497,53,6,test,tumaini,hope,?,FALSE,2980
64096,3,vocab3,96,494.543,65,2,test,chakula,food,food,TRUE,2484
64096,3,vocab3,97,498.654,51,1,study,kanisa,church,church,TRUE,1758
64096,3,vocab3,98,506.908,55,1,study,bahari,sea,sea,TRUE,5657
64096,3,vocab3,99,511.227,51,2,test,kanisa,church,church,TRUE,2512
64096,3,vocab3,100,521.005,55,2,test,bahari,sea,sea,TRUE,4888
64096,3,vocab3,101,525.045,62,8,test,kamba,rope,rope,TRUE,2556
64096,3,vocab3,102,528.286,61,4,test,limau,lemon,lemon,TRUE,1668
64096,3,vocab3,103,530.778,67,4,test,tofaa,apple,apple,TRUE,1037
64096,3,vocab3,104,542.21,69,5,test,kitanda,bed,?,FALSE,10818
64096,3,vocab3,105,549.78,56,8,test,maslahi,interest,storm,FALSE,2117
64096,3,vocab3,106,557.833,65,3,test,chakula,food,church,FALSE,2545
